File: dealloy_example/ExpDat_dealloy_Al_12072023_MACT_A_pink_label_20Kmin_20O2_80Ar_1200C_round_1.csv
#EXPORTTYPE:                 ,DATA ALL
#FILE:                       ,dealloy_Al_12072023_MACT_A_pink_label_20Kmin_20O2_80Ar_1200C_round_1.ngb-ds3
#FORMAT:                     ,NETZSCH5
#FTYPE:                      ,ANSI
#IDENTITY:                   ,DeAl_MACTA_pk_r1
#DECIMAL:                    ,POINT
#SEPARATOR:                  ,COMMA
#MTYPE:                      ,DSC
#INSTRUMENT:                 ,NETZSCH STA 449F3
#PROJECT:                    ,nano-Al
#DATE/TIME:                  ,12/7/2023 2:29:46 PM (UTC-5)
#CORR. FILE:                 ,BL_11012023_20Kmin_1200C_10O2_40Ar.ngb-bs3
#TEMPCAL:                    ,03-05-2023 11:25
#SENSITIVITY:                ,03-05-2023 11:53
#LABORATORY:                 ,calorimetry lab
#OPERATOR:                   ,YP
#REMARK:                     ,DeAlloyed_Al_MACTA-pink_label_run1_20O2_80Ar_1200C_20Cmin
#SAMPLE:                     ,DeAl_MACTA_pk_r1
#SAMPLE MASS /mg:            ,5.0124
#MATERIAL:                   ,mt
#REFERENCE:                  ,empty
#REFERENCE MASS /mg:         ,0
#TYPE OF CRUCIBLE:           ,Al2O3 85 µl, with lid
#SAMPLE CRUCIBLE MASS /mg:   ,0
#REFERENCE CRUCIBLE MASS /mg:,0
#DSC RANGE /µV:              ,5000
#TG RANGE /mg:               ,35000
#TAU-R:                      ,---
#CORR. CODE:                 ,020
#EXO:                        ,+1
#RANGE:                      ,50°C/20.0(K/min)/1200°C
#SEGMENT:                    ,S3/3
#SEG. 3:                     ,50°C/20.0(K/min)/1200°C

##Temp./°C,Time/min,DSC/(mW/mg),Mass/%,Sensit./(uV/mW)
  49.64500,36.01250,-2.814625e-02, 98.79319,0.73547
  49.65300,36.07917,-2.504172e-02, 98.76008,0.73547
  49.66600,36.14583,-2.214408e-02, 98.74012,0.73548
  49.67400,36.21250,-2.483432e-02, 98.76666,0.73548
  49.69000,36.27917,-1.779769e-02, 98.76666,0.73549
  49.73900,36.34583,-1.448589e-02, 98.73574,0.73552
  49.79500,36.41250,-9.104982e-03, 98.82412,0.73556
  49.84500,36.47917, 0.000000e+00, 98.71140,0.73559
  49.92900,36.54583, 1.903553e-02, 98.77324,0.73564
  50.04100,36.61250, 3.289524e-02, 98.79539,0.73571
  50.18500,36.67917, 4.530302e-02, 98.82611,0.73580
  50.33800,36.74583, 6.267142e-02, 98.82831,0.73590
  50.51200,36.81250, 8.458367e-02, 98.77105,0.73601
  50.72500,36.87917,      0.11000, 98.75788,0.73614
  50.96500,36.94583,      0.13107, 98.81733,0.73629
  51.25800,37.01250,      0.15893, 98.75549,0.73647
  51.54700,37.07917,      0.19092, 98.79080,0.73664
  51.88500,37.14583,      0.22000, 98.75788,0.73685
  52.25100,37.21250,      0.25648, 98.78202,0.73708
  52.63500,37.27917,      0.28881, 98.81075,0.73731
  53.08100,37.34583,      0.32110, 98.75569,0.73758
  53.53400,37.41250,      0.35605, 98.73135,0.73785
  54.03300,37.47917,      0.39282, 98.75549,0.73816
  54.54200,37.54583,      0.42687, 98.75549,0.73846
  55.10600,37.61250,      0.45985, 98.77105,0.73880
  55.66500,37.67917,      0.49238, 98.81953,0.73913
  56.26400,37.74583,      0.52940, 98.80855,0.73948
  56.88600,37.81250,      0.56700, 98.79100,0.73985
  57.54400,37.87917,      0.59816, 98.77105,0.74023
  58.21500,37.94583,      0.62826, 98.72476,0.74062
  58.92000,38.01250,      0.66078, 98.72476,0.74103
  59.63500,38.07917,      0.69101, 98.68945,0.74144
  60.36600,38.14583,      0.72406, 98.64077,0.74186
  61.15000,38.21250,      0.75500, 98.65853,0.74230
  61.92300,38.27917,      0.78674, 98.68506,0.74273
  62.72700,38.34583,      0.82169, 98.76227,0.74318
  63.56200,38.41250,      0.84841, 98.78202,0.74364
  64.40200,38.47917,      0.88368, 98.77544,0.74410
  65.25600,38.54583,      0.91318, 98.72037,0.74457
  66.12200,38.61250,      0.94529, 98.76666,0.74504
  67.02600,38.67917,      0.97776, 98.82831,0.74552
  67.93300,38.74583,      1.01508, 98.79100,0.74600
  68.89400,38.81250,      1.04763, 98.72696,0.74650
  69.83400,38.87917,      1.08341, 98.70701,0.74699
  70.81900,38.94583,      1.12381, 98.59030,0.74750
  71.78400,39.01250,      1.16194, 98.69603,0.74799
  72.79900,39.07917,      1.20425, 98.68726,0.74850
  73.85200,39.14583,      1.24222, 98.66750,0.74903
  74.90700,39.21250,      1.28543, 98.65853,0.74955
  75.98000,39.27917,      1.33222, 98.65194,0.75007
  77.08900,39.34583,      1.37993, 98.66292,0.75061
  78.21400,39.41250,      1.42779, 98.66731,0.75115
  79.36800,39.47917,      1.47900, 98.65194,0.75169
  80.53500,39.54583,      1.53479, 98.63858,0.75223
  81.71100,39.61250,      1.58182, 98.62541,0.75277
  82.95600,39.67917,      1.63721, 98.65194,0.75333
  84.18500,39.74583,      1.69195, 98.62780,0.75388
  85.44800,39.81250,      1.75062, 98.53723,0.75443
  86.73900,39.87917,      1.81405, 98.56356,0.75499
  88.02800,39.94583,      1.86833, 98.58152,0.75554
  89.35000,40.01250,      1.93320, 98.57254,0.75609
  90.68900,40.07917,      1.99193, 98.55259,0.75665
  92.06600,40.14583,      2.05298, 98.57234,0.75720
  93.43700,40.21250,      2.11900, 98.58810,0.75775
  94.84800,40.27917,      2.18129, 98.55478,0.75830
  96.27200,40.34583,      2.24271, 98.46221,0.75884
  97.69000,40.41250,      2.31189, 98.44466,0.75938
  99.14400,40.47917,      2.37235, 98.50192,0.75991
 100.622,40.54583,      2.43714, 98.47997,0.76045
 102.113,40.61250,      2.50206, 98.46002,0.76097
 103.61,40.67917,      2.56612, 98.46002,0.76149
 105.122,40.74583,      2.63451, 98.47997,0.76200
 106.64,40.81250,      2.70065, 98.39159,0.76250
 108.159,40.87917,      2.76635, 98.34091,0.76299
 109.74,40.94583,      2.83592, 98.30321,0.76349
 111.281,41.01250,      2.90071, 98.30341,0.76396
 112.856,41.07917,      2.97100, 98.24595,0.76443
 114.445,41.14583,      3.04323, 98.19747,0.76490
 116.052,41.21250,      3.11183, 98.16216,0.76535
 117.657,41.27917,      3.18696, 98.07158,0.76579
 119.273,41.34583,      3.26284, 98.04964,0.76622
 120.918,41.41250,      3.33211, 97.96146,0.76665
 122.571,41.47917,      3.41088, 97.96146,0.76706
 124.209,41.54583,      3.48984, 97.95687,0.76745
 125.892,41.61250,      3.56814, 97.93033,0.76785
 127.58,41.67917,      3.64800, 97.90400,0.76823
 129.273,41.74583,      3.73597, 97.85332,0.76859
 130.978,41.81250,      3.81956, 97.79367,0.76895
 132.678,41.87917,      3.90177, 97.67237,0.76929
 134.413,41.94583,      3.99047, 97.75397,0.76962
 136.138,42.01250,      4.08254, 97.72085,0.76994
 137.878,42.07917,      4.16985, 97.68335,0.77024
 139.627,42.14583,      4.26784, 97.60634,0.77053
 141.385,42.21250,      4.36090, 97.55985,0.77081
 143.142,42.27917,      4.45910, 97.52693,0.77107
 144.912,42.34583,      4.56245, 97.49820,0.77132
 146.683,42.41250,      4.66188, 97.39666,0.77155
 148.458,42.47917,      4.76469, 97.25301,0.77177
 150.245,42.54583,      4.86812, 97.21112,0.77198
 152.021,42.61250,      4.98186, 97.16264,0.77216
 153.826,42.67917,      5.08635, 97.14947,0.77234
 155.617,42.74583,      5.20017, 97.09441,0.77250
 157.407,42.81250,      5.31504, 97.06787,0.77265
 159.211,42.87917,      5.43035, 97.00842,0.77278
 161.005,42.94583,      5.54751, 97.00842,0.77289
 162.812,43.01250,      5.67124, 96.89570,0.77299
 164.619,43.07917,      5.79289, 96.86916,0.77308
 166.425,43.14583,      5.91442, 96.84283,0.77314
 168.234,43.21250,      6.04177, 96.75465,0.77320
 170.044,43.27917,      6.17433, 96.64193,0.77324
 171.86,43.34583,      6.30031, 96.55375,0.77326
 173.665,43.41250,      6.43172, 96.49409,0.77327
 175.462,43.47917,      6.56306, 96.49429,0.77327
 177.285,43.54583,      6.69847, 96.46776,0.77325
 179.11,43.61250,      6.83264, 96.46776,0.77321
 180.929,43.67917,      6.96715, 96.46776,0.77316
 182.748,43.74583,      7.10339, 96.43704,0.77310
 184.575,43.81250,      7.24098, 96.41050,0.77302
 186.371,43.87917,      7.38010, 96.27803,0.77292
 188.174,43.94583,      7.51270, 96.25150,0.77281
 189.986,44.01250,      7.65218, 96.19623,0.77269
 191.8,44.07917,      7.78870, 96.14356,0.77255
 193.611,44.14583,      7.92817, 96.05738,0.77240
 195.406,44.21250,      8.06586, 96.03962,0.77224
 197.227,44.27917,      8.20083, 95.99134,0.77206
 199.023,44.34583,      8.33126, 95.96022,0.77186
 200.822,44.41250,      8.46900, 95.90735,0.77166
 202.597,44.47917,      8.59905, 95.87423,0.77144
 204.398,44.54583,      8.73094, 95.80161,0.77120
 206.178,44.61250,      8.86106, 95.77508,0.77096
 207.951,44.67917,      8.99319, 95.71762,0.77070
 209.719,44.74583,      9.11646, 95.66475,0.77043
 211.487,44.81250,      9.24235, 95.60510,0.77015
 213.256,44.87917,      9.36216, 95.55881,0.76985
 215.006,44.94583,      9.47723, 95.52131,0.76955
 216.754,45.01250,      9.59651, 95.47063,0.76923
 218.513,45.07917,      9.70993, 95.39781,0.76890
 220.243,45.14583,      9.82374, 95.37128,0.76856
 221.969,45.21250,      9.92352, 95.31382,0.76821
 223.704,45.27917,     10.03151, 95.26095,0.76784
 225.438,45.34583,     10.12806, 95.20569,0.76747
 227.15,45.41250,     10.22320, 95.15502,0.76708
 228.858,45.47917,     10.31144, 95.09975,0.76669
 230.575,45.54583,     10.40293, 95.02474,0.76628
 232.271,45.61250,     10.48825, 95.02933,0.76587
 233.958,45.67917,     10.56782, 94.98085,0.76544
 235.645,45.74583,     10.64962, 94.91900,0.76501
 237.336,45.81250,     10.72351, 94.86154,0.76456
 239.004,45.87917,     10.79417, 94.86174,0.76411
 240.676,45.94583,     10.86588, 94.80429,0.76365
 242.331,46.01250,     10.92679, 94.79770,0.76318
 244.004,46.07917,     10.99299, 94.74922,0.76270
 245.64,46.14583,     11.05487, 94.67401,0.76222
 247.279,46.21250,     11.11739, 94.63890,0.76172
 248.919,46.27917,     11.17354, 94.59022,0.76122
 250.558,46.34583,     11.22730, 94.52837,0.76071
 252.179,46.41250,     11.27840, 94.55949,0.76019
 253.805,46.47917,     11.32933, 94.53076,0.75966
 255.421,46.54583,     11.37360, 94.50423,0.75913
 257.024,46.61250,     11.42002, 94.43360,0.75859
 258.62,46.67917,     11.46480, 94.39390,0.75804
 260.209,46.74583,     11.50834, 94.32767,0.75749
 261.795,46.81250,     11.55186, 94.26163,0.75692
 263.376,46.87917,     11.59052, 94.20637,0.75636
 264.954,46.94583,     11.63500, 94.15330,0.75578
 266.517,47.01250,     11.67496, 94.12697,0.75520
 268.079,47.07917,     11.71590, 94.09604,0.75461
 269.624,47.14583,     11.75715, 94.03878,0.75403
 271.182,47.21250,     11.79825, 94.03659,0.75342
 272.727,47.27917,     11.83907, 94.01006,0.75282
 274.264,47.34583,     11.87902, 93.97694,0.75221
 275.791,47.41250,     11.92537, 93.93065,0.75160
 277.314,47.47917,     11.96703, 93.98572,0.75098
 278.842,47.54583,     12.00892, 93.97035,0.75035
 280.344,47.61250,     12.05610, 93.83808,0.74972
 281.858,47.67917,     12.10823, 93.75628,0.74908
 283.368,47.74583,     12.15872, 93.81354,0.74844
 284.861,47.81250,     12.21071, 93.81354,0.74779
 286.359,47.87917,     12.26376, 93.81374,0.74714
 287.839,47.94583,     12.31751, 93.81374,0.74649
 289.328,48.01250,     12.37091, 93.78721,0.74583
 290.795,48.07917,     12.42150, 93.73853,0.74517
 292.286,48.14583,     12.47677, 93.67908,0.74449
 293.729,48.21250,     12.52615, 93.65274,0.74382
 295.2,48.27917,     12.57411, 93.59967,0.74314
 296.664,48.34583,     12.62446, 93.54002,0.74246
 298.119,48.41250,     12.66900, 93.51349,0.74177
 299.574,48.47917,     12.71516, 93.46082,0.74108
 301.027,48.54583,     12.75534, 93.47398,0.74038
 302.455,48.61250,     12.79898, 93.44306,0.73968
 303.898,48.67917,     12.83573, 93.40316,0.73898
 305.329,48.74583,     12.87895, 93.40316,0.73827
 306.762,48.81250,     12.92051, 93.42969,0.73756
 308.185,48.87917,     12.96857, 93.38780,0.73684
 309.607,48.94583,     13.00813, 93.37463,0.73612
 311.024,49.01250,     13.04638, 93.34590,0.73540
 312.429,49.07917,     13.09070, 93.29303,0.73468
 313.845,49.14583,     13.13137, 93.29303,0.73394
 315.255,49.21250,     13.16635, 93.28426,0.73321
 316.663,49.27917,     13.20730, 93.30401,0.73247
 318.059,49.34583,     13.24935, 93.30401,0.73173
 319.471,49.41250,     13.28550, 93.24216,0.73097
 320.851,49.47917,     13.32358, 93.18929,0.73023
 322.242,49.54583,     13.36570, 93.18271,0.72948
 323.636,49.61250,     13.39759, 93.13642,0.72872
 325.012,49.67917,     13.43260, 93.10550,0.72796
 326.397,49.74583,     13.46597, 93.05921,0.72720
 327.777,49.81250,     13.50470, 93.17373,0.72643
 329.146,49.87917,     13.53404, 93.11428,0.72567
 330.522,49.94583,     13.56445, 93.03487,0.72489
 331.89,50.01250,     13.59325, 93.04146,0.72412
 333.262,50.07917,     13.62498, 93.06799,0.72334
 334.617,50.14583,     13.64382, 93.04146,0.72256
 335.97,50.21250,     13.67248, 93.07218,0.72178
 337.337,50.27917,     13.69425, 93.02829,0.72099
 338.685,50.34583,     13.71891, 93.09433,0.72021
 340.04,50.41250,     13.74061, 93.14719,0.71941
 341.402,50.47917,     13.76528, 93.10969,0.71861
 342.739,50.54583,     13.78683, 93.10989,0.71782
 344.092,50.61250,     13.80190, 93.08335,0.71701
 345.435,50.67917,     13.81846, 93.08335,0.71621
 346.786,50.74583,     13.83884, 93.06580,0.71539
 348.12,50.81250,     13.85234, 93.01273,0.71459
 349.456,50.87917,     13.86255, 93.01273,0.71378
 350.788,50.94583,     13.87880, 93.01273,0.71296
 352.128,51.01250,     13.88586, 93.02590,0.71214
 353.463,51.07917,     13.89573, 93.03926,0.71132
 354.796,51.14583,     13.90267, 93.03926,0.71049
 356.116,51.21250,     13.91105, 93.03926,0.70967
 357.452,51.27917,     13.91521, 93.03926,0.70883
 358.763,51.34583,     13.92086, 93.03926,0.70801
 360.101,51.41250,     13.92436, 93.03268,0.70716
 361.42,51.47917,     13.93394, 93.03926,0.70633
 362.74,51.54583,     13.93910, 93.06580,0.70549
 364.06,51.61250,     13.93981, 93.09213,0.70464
 365.371,51.67917,     13.94026, 93.09213,0.70380
 366.686,51.74583,     13.93888, 93.11867,0.70295
 368.013,51.81250,     13.94357, 93.15178,0.70210
 369.331,51.87917,     13.94562, 93.15178,0.70124
 370.642,51.94583,     13.94983, 93.18051,0.70038
 371.952,52.01250,     13.94909, 93.23578,0.69953
 373.264,52.07917,     13.95281, 93.21582,0.69866
 374.573,52.14583,     13.95088, 93.26650,0.69780
 375.883,52.21250,     13.95471, 93.24675,0.69693
 377.203,52.27917,     13.95350, 93.27308,0.69605
 378.499,52.34583,     13.94939, 93.27308,0.69519
 379.805,52.41250,     13.95161, 93.28645,0.69432
 381.123,52.47917,     13.94573, 93.31937,0.69343
 382.427,52.54583,     13.95046, 93.33034,0.69255
 383.734,52.61250,     13.94915, 93.33034,0.69167
 385.03,52.67917,     13.95237, 93.32376,0.69079
 386.341,52.74583,     13.95278, 93.35029,0.68989
 387.651,52.81250,     13.95455, 93.34371,0.68900
 388.95,52.87917,     13.95226, 93.35029,0.68811
 390.262,52.94583,     13.96016, 93.37683,0.68721
 391.561,53.01250,     13.96552, 93.35029,0.68631
 392.859,53.07917,     13.96428, 93.32396,0.68541
 394.161,53.14583,     13.97470, 93.32396,0.68451
 395.47,53.21250,     13.97552, 93.39219,0.68360
 396.762,53.27917,     13.98551, 93.37024,0.68270
 398.066,53.34583,     13.99865, 93.34610,0.68178
 399.369,53.41250,     14.00114, 93.44087,0.68087
 400.663,53.47917,     14.01810, 93.44745,0.67996
 401.956,53.54583,     14.02776, 93.39897,0.67905
 403.263,53.61250,     14.03544, 93.45643,0.67812
 404.567,53.67917,     14.04698, 93.46960,0.67719
 405.873,53.74583,     14.05458, 93.54002,0.67627
 407.177,53.81250,     14.07282, 93.54002,0.67534
 408.471,53.87917,     14.08852, 93.56655,0.67441
 409.762,53.94583,     14.10562, 93.59289,0.67348
 411.061,54.01250,     14.12430, 93.66351,0.67255
 412.363,54.07917,     14.14856, 93.80257,0.67161
 413.666,54.14583,     14.16660, 93.53364,0.67067
 414.962,54.21250,     14.19554, 93.62401,0.66973
 416.269,54.27917,     14.22363, 93.63040,0.66878
 417.57,54.34583,     14.25244, 93.63040,0.66784
 418.86,54.41250,     14.28555, 93.67010,0.66690
 420.164,54.47917,     14.32107, 93.69444,0.66595
 421.462,54.54583,     14.35664, 93.75628,0.66500
 422.769,54.61250,     14.39295, 93.86003,0.66404
 424.066,54.67917,     14.43844, 93.86442,0.66308
 425.343,54.74583,     14.48355, 93.89095,0.66214
 426.664,54.81250,     14.53690, 93.87100,0.66117
 427.967,54.87917,     14.58533, 93.89095,0.66020
 429.266,54.94583,     14.64310, 93.87100,0.65924
 430.562,55.01250,     14.70335, 93.86442,0.65828
 431.866,55.07917,     14.76696, 93.90192,0.65731
 433.169,55.14583,     14.83170, 93.97015,0.65634
 434.469,55.21250,     14.90732, 94.00547,0.65537
 435.783,55.27917,     14.98180, 94.01006,0.65439
 437.085,55.34583,     15.06543, 94.01444,0.65341
 438.378,55.41250,     15.14615, 94.02761,0.65244
 439.669,55.47917,     15.23390, 94.07629,0.65147
 440.981,55.54583,     15.32957, 94.12258,0.65048
 442.292,55.61250,     15.42742, 94.10263,0.64949
 443.587,55.67917,     15.52767, 94.15569,0.64852
 444.902,55.74583,     15.63873, 94.08706,0.64752
 446.197,55.81250,     15.74603, 94.18203,0.64654
 447.516,55.87917,     15.86215, 94.32986,0.64554
 448.797,55.94583,     15.97418, 94.33006,0.64457
 450.116,56.01250,     16.09369, 94.38512,0.64356
 451.426,56.07917,     16.21959, 94.36517,0.64257
 452.727,56.14583,     16.35144, 94.45575,0.64157
 454.038,56.21250,     16.49105, 94.51740,0.64057
 455.332,56.27917,     16.63270, 94.55929,0.63958
 456.653,56.34583,     16.77560, 94.58583,0.63857
 457.945,56.41250,     16.93368, 94.63870,0.63758
 459.249,56.47917,     17.08774, 94.67860,0.63658
 460.554,56.54583,     17.25048, 94.76019,0.63558
 461.869,56.61250,     17.42022, 94.66962,0.63457
 463.187,56.67917,     17.58987, 94.78234,0.63355
 464.485,56.74583,     17.76760, 94.79970,0.63255
 465.8,56.81250,     17.94919, 95.00718,0.63154
 467.105,56.87917,     18.13842, 94.87691,0.63053
 468.414,56.94583,     18.32764, 94.96309,0.62952
 469.734,57.01250,     18.52138, 95.02494,0.62850
 471.035,57.07917,     18.72675, 95.12210,0.62749
 472.35,57.14583,     18.93264, 95.18594,0.62647
 473.662,57.21250,     19.14914, 95.26534,0.62545
 474.972,57.27917,     19.37485, 95.38006,0.62443
 476.282,57.34583,     19.60596, 95.43532,0.62342
 477.59,57.41250,     19.83780, 95.51253,0.62240
 478.901,57.47917,     20.08789, 95.62505,0.62138
 480.213,57.54583,     20.34327, 95.66914,0.62036
 481.54,57.61250,     20.59843, 95.83014,0.61932
 482.853,57.67917,     20.86419, 95.76171,0.61830
 484.162,57.74583,     21.14185, 95.89618,0.61728
 485.479,57.81250,     21.42066, 95.99773,0.61625
 486.782,57.87917,     21.70771, 96.08591,0.61523
 488.103,57.94583,     22.00713, 96.20741,0.61420
 489.428,58.01250,     22.31142, 96.35524,0.61316
 490.729,58.07917,     22.62303, 96.46118,0.61214
 492.043,58.14583,     22.94628, 96.55834,0.61112
 493.359,58.21250,     23.27545, 96.65968,0.61009
 494.686,58.27917,     23.61857, 96.75664,0.60905
 495.998,58.34583,     23.95941, 96.85819,0.60802
 497.317,58.41250,     24.30364, 97.04373,0.60698
 498.629,58.47917,     24.66643, 97.13630,0.60596
 499.95,58.54583,     25.02219, 97.27516,0.60492
 501.271,58.61250,     25.39406, 97.44075,0.60388
 502.588,58.67917,     25.76961, 97.57521,0.60285
 503.922,58.74583,     26.14880, 97.72963,0.60180
 505.233,58.81250,     26.53031, 97.91497,0.60077
 506.556,58.87917,     26.90746, 98.05183,0.59974
 507.869,58.94583,     27.29446, 98.23498,0.59870
 509.191,59.01250,     27.67015, 98.36286,0.59767
 510.518,59.07917,     28.05421, 98.48655,0.59662
 511.842,59.14583,     28.42137, 98.67409,0.59558
 513.158,59.21250,     28.78746, 98.86362,0.59455
 514.477,59.27917,     29.14391, 99.04237,0.59352
 515.797,59.34583,     29.49574, 99.17924,0.59248
 517.112,59.41250,     29.82775, 99.43520,0.59145
 518.433,59.47917,     30.14389, 99.52578,0.59041
 519.755,59.54583,     30.44180, 99.83680,0.58937
 521.074,59.61250,     30.72744, 99.92279,0.58834
 522.375,59.67917,     30.98586,100.176,0.58731
 523.704,59.74583,     31.23025,100.39,0.58627
 525.008,59.81250,     31.44349,100.554,0.58525
 526.332,59.87917,     31.64190,100.739,0.58421
 527.65,59.94583,     31.80682,100.918,0.58318
 528.952,60.01250,     31.94652,101.101,0.58216
 530.275,60.07917,     32.06245,101.31,0.58112
 531.57,60.14583,     32.15133,101.516,0.58010
 532.877,60.21250,     32.21736,101.703,0.57908
 534.192,60.27917,     32.25868,101.919,0.57805
 535.505,60.34583,     32.28051,102.087,0.57702
 536.811,60.41250,     32.27830,102.27,0.57600
 538.12,60.47917,     32.24787,102.438,0.57498
 539.421,60.54583,     32.20688,102.658,0.57396
 540.729,60.61250,     32.14688,102.806,0.57294
 542.026,60.67917,     32.07126,102.996,0.57193
 543.323,60.74583,     31.98175,103.192,0.57092
 544.633,60.81250,     31.88631,103.343,0.56989
 545.944,60.87917,     31.78384,103.493,0.56887
 547.233,60.94583,     31.66930,103.675,0.56787
 548.552,61.01250,     31.54299,103.89,0.56684
 549.832,61.07917,     31.41720,104.079,0.56585
 551.137,61.14583,     31.27906,104.289,0.56483
 552.441,61.21250,     31.15007,104.322,0.56382
 553.731,61.27917,     31.00266,104.485,0.56282
 555.04,61.34583,     30.86308,104.662,0.56180
 556.333,61.41250,     30.73367,104.865,0.56080
 557.639,61.47917,     30.58990,104.97,0.55979
 558.941,61.54583,     30.44893,105.114,0.55878
 560.243,61.61250,     30.31369,105.273,0.55777
 561.551,61.67917,     30.18527,105.493,0.55676
 562.848,61.74583,     30.05998,105.613,0.55576
 564.155,61.81250,     29.94010,105.913,0.55475
 565.456,61.87917,     29.82277,105.807,0.55375
 566.753,61.94583,     29.70921,106.021,0.55275
 568.071,62.01250,     29.60847,106.199,0.55174
 569.376,62.07917,     29.51562,106.301,0.55074
 570.677,62.14583,     29.43467,106.44,0.54974
 571.985,62.21250,     29.36890,106.568,0.54873
 573.296,62.27917,     29.31103,106.658,0.54773
 574.583,62.34583,     29.26972,106.945,0.54675
 575.893,62.41250,     29.24309,106.945,0.54574
 577.215,62.47917,     29.24669,107.031,0.54474
 578.516,62.54583,     29.26253,107.036,0.54374
 579.835,62.61250,     29.31081,107.119,0.54274
 581.151,62.67917,     29.39391,107.477,0.54174
 582.459,62.74583,     29.49719,107.444,0.54074
 583.777,62.81250,     29.64970,107.711,0.53974
 585.094,62.87917,     29.84166,107.876,0.53875
 586.412,62.94583,     30.08638,108.075,0.53775
 587.726,63.01250,     30.38565,108.194,0.53676
 589.049,63.07917,     30.74344,108.353,0.53576
 590.351,63.14583,     31.16363,108.516,0.53477
 591.69,63.21250,     31.65821,108.668,0.53377
 593.03,63.27917,     32.22263,108.829,0.53276
 594.339,63.34583,     32.86122,108.993,0.53178
 595.674,63.41250,     33.55866,109.246,0.53078
 597,63.47917,     34.33176,109.491,0.52978
 598.336,63.54583,     35.15825,109.793,0.52878
 599.674,63.61250,     36.02016,109.99,0.52779
 601.011,63.67917,     36.90426,110.33,0.52679
 602.342,63.74583,     37.78287,110.605,0.52580
 603.684,63.81250,     38.61859,110.819,0.52480
 605.048,63.87917,     39.38421,111.152,0.52379
 606.373,63.94583,     40.02613,111.419,0.52281
 607.711,64.01250,     40.52321,111.68,0.52182
 609.052,64.07917,     40.83722,112.028,0.52083
 610.372,64.14583,     40.96603,112.353,0.51986
 611.712,64.21250,     40.88250,112.635,0.51887
 613.027,64.27917,     40.60458,112.942,0.51791
 614.351,64.34583,     40.16140,113.178,0.51694
 615.677,64.41250,     39.55636,113.383,0.51597
 616.983,64.47917,     38.84229,113.707,0.51501
 618.293,64.54583,     38.01848,113.932,0.51406
 619.596,64.61250,     37.12495,114.067,0.51311
 620.884,64.67917,     36.17611,114.239,0.51217
 622.188,64.74583,     35.19947,114.435,0.51123
 623.488,64.81250,     34.20905,114.685,0.51029
 624.771,64.87917,     33.22392,114.766,0.50936
 626.07,64.94583,     32.24391,114.68,0.50842
 627.378,65.01250,     31.29925,114.901,0.50748
 628.655,65.07917,     30.37729,115.018,0.50656
 629.949,65.14583,     29.49503,115.104,0.50564
 631.236,65.21250,     28.64142,115.183,0.50471
 632.535,65.27917,     27.83430,115.247,0.50379
 633.834,65.34583,     27.06497,115.324,0.50286
 635.147,65.41250,     26.34113,115.402,0.50193
 636.433,65.47917,     25.66213,115.461,0.50101
 637.726,65.54583,     25.02646,115.527,0.50010
 639.02,65.61250,     24.43810,115.624,0.49918
 640.335,65.67917,     23.89280,115.596,0.49825
 641.643,65.74583,     23.39136,115.664,0.49733
 642.94,65.81250,     22.91735,115.753,0.49642
 644.26,65.87917,     22.47940,115.728,0.49550
 645.557,65.94583,     22.07779,115.742,0.49459
 646.87,66.01250,     21.70501,115.744,0.49367
 648.181,66.07917,     21.36282,115.849,0.49276
 649.493,66.14583,     21.05891,115.889,0.49185
 650.799,66.21250,     20.76943,115.909,0.49094
 652.119,66.27917,     20.51523,115.896,0.49003
 653.433,66.34583,     20.27537,115.942,0.48912
 654.746,66.41250,     20.05883,115.914,0.48822
 656.069,66.47917,     19.86573,115.894,0.48731
 657.385,66.54583,     19.67413,115.944,0.48641
 658.709,66.61250,     19.45343,115.971,0.48550
 660.023,66.67917,     19.11532,116.026,0.48460
 661.348,66.74583,     18.75572,116.101,0.48370
 662.67,66.81250,     18.70483,115.911,0.48281
 663.985,66.87917,     18.84741,115.951,0.48192
 665.322,66.94583,     18.94830,116.006,0.48101
 666.647,67.01250,     18.99146,116.059,0.48012
 667.986,67.07917,     19.01283,116.088,0.47922
 669.307,67.14583,     19.02416,116.081,0.47833
 670.643,67.21250,     19.01384,116.079,0.47744
 671.975,67.27917,     18.99850,116.156,0.47655
 673.3,67.34583,     18.98058,116.072,0.47567
 674.631,67.41250,     18.98125,115.874,0.47479
 675.963,67.47917,     18.95810,116.019,0.47391
 677.293,67.54583,     18.94597,116.079,0.47303
 678.633,67.61250,     18.94138,116.105,0.47215
 679.961,67.67917,     18.93475,116.105,0.47128
 681.294,67.74583,     18.92133,116.079,0.47040
 682.631,67.81250,     18.91306,116.079,0.46953
 683.966,67.87917,     18.91467,116.105,0.46866
 685.295,67.94583,     18.91441,116.132,0.46780
 686.634,68.01250,     18.92213,116.145,0.46693
 687.958,68.07917,     18.92417,116.105,0.46608
 689.286,68.14583,     18.93113,116.099,0.46522
 690.618,68.21250,     18.93550,116.108,0.46437
 691.955,68.27917,     18.93170,116.176,0.46351
 693.29,68.34583,     18.93695,116.156,0.46266
 694.628,68.41250,     18.94779,116.11,0.46181
 695.964,68.47917,     18.95225,116.11,0.46096
 697.293,68.54583,     18.95776,116.11,0.46012
 698.628,68.61250,     18.97030,116.11,0.45928
 699.955,68.67917,     18.98690,116.11,0.45845
 701.282,68.74583,     18.99281,116.084,0.45761
 702.617,68.81250,     18.99484,116.13,0.45678
 703.953,68.87917,     18.99580,116.136,0.45595
 705.296,68.94583,     19.01222,116.163,0.45511
 706.625,69.01250,     19.01517,116.189,0.45429
 707.964,69.07917,     19.01458,116.163,0.45346
 709.299,69.14583,     19.01412,116.136,0.45264
 710.639,69.21250,     19.00997,116.143,0.45182
 711.967,69.27917,     19.01990,116.143,0.45101
 713.301,69.34583,     19.02484,116.163,0.45019
 714.637,69.41250,     19.02906,116.103,0.44938
 715.962,69.47917,     19.03867,116.103,0.44858
 717.303,69.54583,     19.03740,116.145,0.44777
 718.643,69.61250,     19.03871,116.125,0.44696
 719.966,69.67917,     19.04050,116.105,0.44617
 721.298,69.74583,     19.03797,116.105,0.44537
 722.636,69.81250,     19.04404,116.125,0.44458
 723.97,69.87917,     19.05300,116.191,0.44379
 725.301,69.94583,     19.05630,116.191,0.44300
 726.626,70.01250,     19.05350,116.218,0.44222
 727.96,70.07917,     19.06150,116.161,0.44143
 729.314,70.14583,     19.05885,116.092,0.44064
 730.644,70.21250,     19.05894,116,0.43986
 731.97,70.27917,     19.06158,116,0.43909
 733.301,70.34583,     19.06876,116,0.43832
 734.639,70.41250,     19.06350,115.973,0.43754
 735.98,70.47917,     19.07630,116.059,0.43677
 737.314,70.54583,     19.08222,116.152,0.43601
 738.656,70.61250,     19.08544,116.081,0.43524
 739.972,70.67917,     19.09526,116.022,0.43449
 741.312,70.74583,     19.10315,116.015,0.43373
 742.649,70.81250,     19.10313,116.101,0.43297
 743.982,70.87917,     19.10078,116.172,0.43222
 745.313,70.94583,     19.10990,116.11,0.43147
 746.646,71.01250,     19.11297,116.064,0.43073
 747.98,71.07917,     19.13507,116.057,0.42998
 749.31,71.14583,     19.14355,116.004,0.42924
 750.644,71.21250,     19.15382,116.03,0.42850
 751.979,71.27917,     19.15869,116.061,0.42777
 753.32,71.34583,     19.17001,115.984,0.42703
 754.653,71.41250,     19.18855,115.942,0.42630
 755.985,71.47917,     19.20200,115.982,0.42557
 757.32,71.54583,     19.22190,116.008,0.42485
 758.654,71.61250,     19.23346,116.013,0.42413
 759.991,71.67917,     19.24717,115.986,0.42340
 761.31,71.74583,     19.25964,116.039,0.42270
 762.65,71.81250,     19.27615,116.048,0.42198
 763.98,71.87917,     19.29271,116.059,0.42127
 765.317,71.94583,     19.30503,116.105,0.42056
 766.64,72.01250,     19.33686,116.068,0.41986
 767.987,72.07917,     19.34565,116.024,0.41915
 769.321,72.14583,     19.36421,115.951,0.41845
 770.646,72.21250,     19.38504,115.834,0.41776
 771.982,72.27917,     19.40060,115.726,0.41706
 773.313,72.34583,     19.41488,115.761,0.41637
 774.647,72.41250,     19.43317,115.755,0.41568
 775.995,72.47917,     19.45833,115.914,0.41499
 777.324,72.54583,     19.48189,115.847,0.41430
 778.665,72.61250,     19.50090,115.828,0.41362
 779.985,72.67917,     19.52819,115.774,0.41295
 781.328,72.74583,     19.55709,115.746,0.41227
 782.673,72.81250,     19.58749,115.781,0.41159
 784.006,72.87917,     19.61275,115.907,0.41092
 785.339,72.94583,     19.64762,115.94,0.41025
 786.678,73.01250,     19.69152,115.878,0.40958
 787.985,73.07917,     19.72313,115.766,0.40893
 789.328,73.14583,     19.74775,115.739,0.40827
 790.663,73.21250,     19.77810,115.847,0.40761
 791.996,73.27917,     19.81173,115.819,0.40696
 793.323,73.34583,     19.84856,115.834,0.40631
 794.663,73.41250,     19.88006,115.907,0.40566
 795.997,73.47917,     19.91101,115.757,0.40502
 797.332,73.54583,     19.94082,115.594,0.40437
 798.67,73.61250,     19.98083,115.642,0.40373
 799.989,73.67917,     20.02568,115.611,0.40310
 801.334,73.74583,     20.07266,115.719,0.40246
 802.664,73.81250,     20.11513,115.66,0.40183
 804.006,73.87917,     20.15219,115.66,0.40120
 805.343,73.94583,     20.20850,115.633,0.40057
 806.678,74.01250,     20.27431,115.653,0.39994
 808.018,74.07917,     20.31514,115.633,0.39932
 809.363,74.14583,     20.37289,115.633,0.39869
 810.691,74.21250,     20.42032,115.633,0.39808
 812.033,74.27917,     20.46964,115.567,0.39746
 813.368,74.34583,     20.52570,115.618,0.39685
 814.696,74.41250,     20.57241,115.51,0.39625
 816.033,74.47917,     20.63087,115.572,0.39564
 817.37,74.54583,     20.69400,115.73,0.39504
 818.715,74.61250,     20.74464,115.503,0.39443
 820.054,74.67917,     20.78742,115.516,0.39383
 821.391,74.74583,     20.84910,115.439,0.39324
 822.724,74.81250,     20.90337,115.448,0.39265
 824.073,74.87917,     20.95027,115.51,0.39205
 825.408,74.94583,     20.99956,115.512,0.39146
 826.742,75.01250,     21.04143,115.565,0.39088
 828.082,75.07917,     21.08850,115.512,0.39030
 829.42,75.14583,     21.13356,115.512,0.38972
 830.753,75.21250,     21.17145,115.508,0.38914
 832.093,75.27917,     21.20008,115.496,0.38857
 833.431,75.34583,     21.22232,115.525,0.38799
 834.764,75.41250,     21.24200,115.463,0.38743
 836.102,75.47917,     21.25857,115.494,0.38686
 837.441,75.54583,     21.26876,115.34,0.38629
 838.785,75.61250,     21.27146,115.395,0.38573
 840.114,75.67917,     21.25273,115.296,0.38518
 841.461,75.74583,     21.24845,115.435,0.38462
 842.799,75.81250,     21.24105,115.565,0.38406
 844.137,75.87917,     21.22196,115.499,0.38351
 845.467,75.94583,     21.19097,115.435,0.38297
 846.813,76.01250,     21.15772,115.349,0.38242
 848.15,76.07917,     21.12761,115.329,0.38187
 849.484,76.14583,     21.08244,115.261,0.38133
 850.817,76.21250,     21.04058,115.23,0.38080
 852.155,76.27917,     20.99897,115.358,0.38026
 853.497,76.34583,     20.95839,115.402,0.37973
 854.832,76.41250,     20.90455,115.413,0.37920
 856.173,76.47917,     20.85618,115.413,0.37867
 857.498,76.54583,     20.81202,115.355,0.37815
 858.834,76.61250,     20.75131,115.3,0.37763
 860.183,76.67917,     20.69461,115.3,0.37710
 861.52,76.74583,     20.64544,115.274,0.37658
 862.849,76.81250,     20.59219,115.344,0.37607
 864.19,76.87917,     20.54133,115.344,0.37556
 865.536,76.94583,     20.49720,115.283,0.37505
 866.867,77.01250,     20.45007,115.283,0.37454
 868.201,77.07917,     20.40762,115.287,0.37404
 869.529,77.14583,     20.36968,115.32,0.37354
 870.877,77.21250,     20.33886,115.371,0.37303
 872.205,77.27917,     20.29801,115.333,0.37254
 873.534,77.34583,     20.26021,115.331,0.37205
 874.881,77.41250,     20.23279,115.304,0.37155
 876.216,77.47917,     20.20491,115.276,0.37106
 877.553,77.54583,     20.18632,115.276,0.37057
 878.884,77.61250,     20.16373,115.333,0.37009
 880.223,77.67917,     20.14275,115.413,0.36961
 881.566,77.74583,     20.13403,115.375,0.36913
 882.9,77.81250,     20.11713,115.342,0.36865
 884.228,77.87917,     20.10739,115.298,0.36818
 885.566,77.94583,     20.09976,115.417,0.36770
 886.904,78.01250,     20.09073,115.468,0.36723
 888.228,78.07917,     20.07257,115.45,0.36677
 889.575,78.14583,     20.06879,115.347,0.36630
 890.915,78.21250,     20.05726,115.307,0.36583
 892.242,78.27917,     20.05074,115.338,0.36538
 893.588,78.34583,     20.05402,115.364,0.36491
 894.916,78.41250,     20.05392,115.349,0.36446
 896.262,78.47917,     20.05989,115.318,0.36400
 897.593,78.54583,     20.05751,115.386,0.36355
 898.934,78.61250,     20.06440,115.552,0.36310
 900.256,78.67917,     20.06915,115.457,0.36266
 901.594,78.74583,     20.06947,115.318,0.36221
 902.935,78.81250,     20.08569,115.377,0.36177
 904.267,78.87917,     20.08777,115.459,0.36133
 905.606,78.94583,     20.08901,115.554,0.36089
 906.953,79.01250,     20.09365,115.569,0.36045
 908.283,79.07917,     20.08476,115.477,0.36002
 909.626,79.14583,     20.09035,115.571,0.35959
 910.97,79.21250,     20.09755,115.708,0.35915
 912.308,79.27917,     20.09562,115.741,0.35873
 913.644,79.34583,     20.09607,115.71,0.35830
 914.989,79.41250,     20.10677,115.678,0.35788
 916.325,79.47917,     20.09506,115.629,0.35746
 917.666,79.54583,     20.10845,115.633,0.35704
 918.99,79.61250,     20.11334,115.607,0.35662
 920.337,79.67917,     20.11852,115.633,0.35621
 921.677,79.74583,     20.11663,115.686,0.35579
 923.012,79.81250,     20.11409,115.717,0.35539
 924.352,79.87917,     20.12223,115.708,0.35498
 925.691,79.94583,     20.13112,115.622,0.35457
 927.029,80.01250,     20.14160,115.583,0.35417
 928.369,80.07917,     20.15547,115.653,0.35376
 929.715,80.14583,     20.15600,115.713,0.35336
 931.049,80.21250,     20.16871,115.752,0.35297
 932.386,80.27917,     20.18224,115.865,0.35257
 933.729,80.34583,     20.19060,115.865,0.35218
 935.071,80.41250,     20.20707,115.973,0.35178
 936.391,80.47917,     20.20100,115.819,0.35140
 937.739,80.54583,     20.20784,115.805,0.35101
 939.083,80.61250,     20.21495,115.819,0.35062
 940.419,80.67917,     20.23008,115.845,0.35024
 941.757,80.74583,     20.24429,115.832,0.34986
 943.098,80.81250,     20.24975,115.958,0.34948
 944.436,80.87917,     20.25725,115.903,0.34910
 945.784,80.94583,     20.25651,115.955,0.34872
 947.116,81.01250,     20.26938,115.975,0.34835
 948.441,81.07917,     20.28118,116.046,0.34798
 949.788,81.14583,     20.28537,116.052,0.34761
 951.129,81.21250,     20.27708,115.989,0.34724
 952.462,81.27917,     20.28082,115.962,0.34688
 953.798,81.34583,     20.27133,116.004,0.34652
 955.14,81.41250,     20.26796,115.958,0.34615
 956.467,81.47917,     20.27392,116.006,0.34580
 957.806,81.54583,     20.27733,116.163,0.34544
 959.148,81.61250,     20.26480,116.152,0.34508
 960.483,81.67917,     20.25115,116.117,0.34473
 961.821,81.74583,     20.25907,116.174,0.34438
 963.16,81.81250,     20.25673,116.317,0.34402
 964.503,81.87917,     20.25700,116.344,0.34367
 965.834,81.94583,     20.25787,116.277,0.34333
 967.173,82.01250,     20.24900,116.145,0.34298
 968.503,82.07917,     20.24520,116.081,0.34264
 969.843,82.14583,     20.23921,116.214,0.34230
 971.174,82.21250,     20.23253,116.406,0.34196
 972.502,82.27917,     20.22212,116.346,0.34162
 973.849,82.34583,     20.21723,116.397,0.34129
 975.179,82.41250,     20.21420,116.18,0.34095
 976.513,82.47917,     20.20979,116.536,0.34062
 977.86,82.54583,     20.20367,116.496,0.34029
 979.185,82.61250,     20.17428,116.626,0.33996
 980.531,82.67917,     20.15759,116.556,0.33963
 981.853,82.74583,     20.14671,116.611,0.33931
 983.199,82.81250,     20.13650,116.648,0.33898
 984.536,82.87917,     20.12649,116.67,0.33866
 985.883,82.94583,     20.08592,116.681,0.33833
 987.217,83.01250,     20.07561,116.661,0.33801
 988.558,83.07917,     20.06123,116.664,0.33770
 989.89,83.14583,     20.04660,116.611,0.33738
 991.226,83.21250,     20.03236,116.637,0.33707
 992.564,83.27917,     20.01531,116.701,0.33675
 993.906,83.34583,     19.98417,116.765,0.33644
 995.233,83.41250,     19.96219,116.812,0.33613
 996.574,83.47917,     19.92803,116.845,0.33582
 997.91,83.54583,     19.91315,116.818,0.33551
 999.254,83.61250,     19.88601,116.847,0.33521
1000.58,83.67917,     19.85627,116.875,0.33490
1001.92,83.74583,     19.82145,116.931,0.33460
1003.27,83.81250,     20.18969,116.97,0.33430
1004.61,83.87917,     20.08977,117.067,0.33400
1005.94,83.94583,     20.03334,116.999,0.33370
1007.28,84.01250,     19.95944,117.048,0.33340
1008.62,84.07917,     19.89499,117.109,0.33310
1009.97,84.14583,     19.86605,117.156,0.33281
1011.3,84.21250,     19.79881,117.18,0.33252
1012.64,84.27917,     19.74522,117.123,0.33222
1013.99,84.34583,     19.69424,117.149,0.33193
1015.32,84.41250,     19.67789,117.195,0.33164
1016.66,84.47917,     19.63206,117.273,0.33135
1018.02,84.54583,     19.57151,117.312,0.33107
1019.34,84.61250,     19.52700,117.308,0.33078
1020.67,84.67917,     19.47500,117.281,0.33050
1022.02,84.74583,     19.41629,117.423,0.33022
1023.36,84.81250,     19.35484,117.493,0.32993
1024.7,84.87917,     19.28778,117.495,0.32965
1026.04,84.94583,     19.22922,117.522,0.32938
1027.38,85.01250,     19.15713,117.643,0.32910
1028.71,85.07917,     19.08837,117.584,0.32882
1030.05,85.14583,     19.01684,117.55,0.32855
1031.39,85.21250,     18.95713,117.67,0.32827
1032.73,85.27917,     18.89122,117.687,0.32800
1034.07,85.34583,     18.81679,117.486,0.32773
1035.42,85.41250,     18.75941,117.74,0.32746
1036.74,85.47917,     18.69701,117.851,0.32719
1038.09,85.54583,     18.62391,117.866,0.32692
1039.42,85.61250,     18.54580,117.866,0.32666
1040.76,85.67917,     18.45228,117.809,0.32639
1042.1,85.74583,     18.37395,117.915,0.32613
1043.44,85.81250,     18.27436,117.806,0.32586
1044.77,85.87917,     18.18894,117.833,0.32560
1046.1,85.94583,     18.07767,117.886,0.32534
1047.45,86.01250,     17.97798,117.941,0.32508
1048.78,86.07917,     17.86426,118.007,0.32482
1050.12,86.14583,     17.77530,118.08,0.32456
1051.46,86.21250,     17.66459,118.17,0.32431
1052.79,86.27917,     17.56623,118.217,0.32405
1054.14,86.34583,     17.45561,118.29,0.32379
1055.48,86.41250,     17.33566,118.279,0.32354
1056.81,86.47917,     17.20985,118.25,0.32329
1058.14,86.54583,     17.10492,118.347,0.32304
1059.49,86.61250,     16.98764,118.491,0.32279
1060.82,86.67917,     16.86678,118.19,0.32254
1062.15,86.74583,     16.73758,118.197,0.32229
1063.49,86.81250,     16.61626,118.345,0.32204
1064.83,86.87917,     16.48143,118.572,0.32179
1066.16,86.94583,     16.34726,118.623,0.32155
1067.49,87.01250,     16.20714,118.563,0.32130
1068.84,87.07917,     16.05129,118.647,0.32106
1070.17,87.14583,     15.88315,118.647,0.32081
1071.51,87.21250,     15.72477,118.709,0.32057
1072.85,87.27917,     15.56320,118.806,0.32033
1074.19,87.34583,     15.40476,118.817,0.32009
1075.53,87.41250,     15.23448,118.709,0.31985
1076.86,87.47917,     15.05298,118.676,0.31961
1078.19,87.54583,     14.87646,118.674,0.31937
1079.53,87.61250,     14.68866,118.801,0.31913
1080.86,87.67917,     14.49764,118.834,0.31890
1082.21,87.74583,     14.30260,118.938,0.31866
1083.55,87.81250,     14.09811,119.049,0.31842
1084.89,87.87917,     13.88511,119.046,0.31819
1086.22,87.94583,     13.66694,118.993,0.31795
1087.56,88.01250,     13.43795,118.978,0.31772
1088.88,88.07917,     13.20370,119.018,0.31749
1090.22,88.14583,     12.96918,119.084,0.31726
1091.57,88.21250,     12.71753,119.057,0.31702
1092.91,88.27917,     12.46015,119.097,0.31679
1094.25,88.34583,     12.20335,119.128,0.31656
1095.58,88.41250,     11.95910,119.082,0.31633
1096.93,88.47917,     11.71065,119.13,0.31610
1098.24,88.54583,     11.44868,119.13,0.31588
1099.59,88.61250,     11.18646,119.156,0.31565
1100.92,88.67917,     10.93969,119.156,0.31542
1102.26,88.74583,     10.67954,119.183,0.31519
1103.6,88.81250,     10.42628,119.214,0.31497
1104.94,88.87917,     10.19100,119.152,0.31474
1106.28,88.94583,      9.94129,119.207,0.31452
1107.61,89.01250,      9.72270,119.207,0.31429
1108.95,89.07917,      9.52027,119.185,0.31407
1110.3,89.14583,      9.31370,119.232,0.31384
1111.63,89.21250,      9.13974,119.271,0.31362
1112.96,89.27917,      8.95729,119.238,0.31340
1114.3,89.34583,      8.80423,119.199,0.31318
1115.64,89.41250,      8.65873,119.225,0.31296
1116.98,89.47917,      8.53688,119.225,0.31273
1118.31,89.54583,      8.41477,119.17,0.31251
1119.65,89.61250,      8.31883,119.17,0.31229
1120.99,89.67917,      8.23691,119.144,0.31207
1122.33,89.74583,      8.17583,119.144,0.31186
1123.66,89.81250,      8.12784,119.117,0.31164
1125.01,89.87917,      8.08910,119.117,0.31142
1126.33,89.94583,      8.07614,119.126,0.31120
1127.67,90.01250,      8.06661,119.119,0.31098
1129.01,90.07917,      8.06003,119.099,0.31077
1130.35,90.14583,      8.07498,119.049,0.31055
1131.69,90.21250,      8.08015,118.98,0.31033
1133.03,90.27917,      8.07400,118.978,0.31011
1134.36,90.34583,      8.08845,119.004,0.30990
1135.69,90.41250,      8.07195,118.885,0.30968
1137.03,90.47917,      8.04710,119.069,0.30947
1138.36,90.54583,      8.00540,119.044,0.30925
1139.69,90.61250,      7.93214,118.947,0.30904
1141.03,90.67917,      7.83862,118.636,0.30882
1142.31,90.74583,      7.82902,118.592,0.30862
1143.66,90.81250,      7.73877,118.806,0.30840
1145.01,90.87917,      7.67504,118.647,0.30819
1146.37,90.94583,      7.64438,118.515,0.30797
1147.71,91.01250,      7.58293,118.656,0.30776
1149.04,91.07917,      7.50405,118.676,0.30754
1150.37,91.14583,      7.42303,118.506,0.30733
1151.71,91.21250,      7.35536,118.446,0.30712
1153.05,91.27917,      7.28061,118.462,0.30690
1154.39,91.34583,      7.19982,118.495,0.30669
1155.73,91.41250,      7.12734,118.517,0.30648
1157.07,91.47917,      7.05178,118.418,0.30627
1158.41,91.54583,      6.96419,118.398,0.30605
1159.75,91.61250,      6.86900,118.36,0.30584
1161.09,91.67917,      6.79559,118.285,0.30563
1162.44,91.74583,      6.70763,118.285,0.30541
1163.77,91.81250,      6.65194,118.329,0.30520
1165.12,91.87917,      6.58472,118.451,0.30499
1166.46,91.94583,      6.51790,118.517,0.30478
1167.79,92.01250,      6.45843,118.382,0.30457
1169.13,92.07917,      6.38993,118.49,0.30435
1170.47,92.14583,      6.33033,118.517,0.30414
1171.82,92.21250,      6.27717,118.459,0.30393
1173.15,92.27917,      6.21185,118.323,0.30372
1174.5,92.34583,      6.16206,118.347,0.30350
1175.83,92.41250,      6.11919,118.455,0.30329
1177.17,92.47917,      6.07523,118.367,0.30308
1178.5,92.54583,      6.03072,118.418,0.30287
1179.85,92.61250,      5.98720,118.36,0.30266
1181.19,92.67917,      5.95414,118.424,0.30245
1182.53,92.74583,      5.92710,118.338,0.30223
1183.86,92.81250,      5.89850,118.287,0.30202
1185.2,92.87917,      5.87138,118.23,0.30181
1186.55,92.94583,      5.87098,118.254,0.30160
1187.89,93.01250,      5.87261,118.364,0.30138
1189.22,93.07917,      5.86056,118.382,0.30117
1190.57,93.14583,      5.84955,118.349,0.30096
1191.9,93.21250,      5.82937,118.327,0.30075
1193.23,93.27917,      5.82839,118.252,0.30054
1194.13,93.34583,     12.79635,118.261,0.30039
1195.5,93.41250,     13.83755,118.329,0.30017
1196.93,93.47917,     14.09316,118.391,0.29995