File: dealloy_example/ExpDat_dealloy_Al_12232023_MACT_A_pink_label_20Kmin_20O2_80Ar_1200C_round_3.csv
#EXPORTTYPE:                 ,DATA ALL
#FILE:                       ,dealloy_Al_12132023_MACT_A_pink_label_20Kmin_20O2_80Ar_1200C_round_3.ngb-ds3
#FORMAT:                     ,NETZSCH5
#FTYPE:                      ,ANSI
#IDENTITY:                   ,De_alloy_MACT_A_pk_R3
#DECIMAL:                    ,POINT
#SEPARATOR:                  ,COMMA
#MTYPE:                      ,DSC
#INSTRUMENT:                 ,NETZSCH STA 449F3
#PROJECT:                    ,nano-Al
#DATE/TIME:                  ,12/13/2023 4:52:31 PM (UTC-5)
#CORR. FILE:                 ,BL_11012023_20Kmin_1200C_10O2_40Ar.ngb-bs3
#TEMPCAL:                    ,03-05-2023 11:25
#SENSITIVITY:                ,03-05-2023 11:53
#LABORATORY:                 ,calorimetry lab
#OPERATOR:                   ,YP
#REMARK:                     ,dealloy_Al_12132023_MACT_A_pink_label_20Kmin_20O2_80Ar_1200C_round_3
#SAMPLE:                     ,De_alloy_MACT_A_pk_R3
#SAMPLE MASS /mg:            ,5.6368
#MATERIAL:                   ,mt
#REFERENCE:                  ,empty
#REFERENCE MASS /mg:         ,0
#TYPE OF CRUCIBLE:           ,Al2O3 85 µl, with lid
#SAMPLE CRUCIBLE MASS /mg:   ,0
#REFERENCE CRUCIBLE MASS /mg:,0
#DSC RANGE /µV:              ,5000
#TG RANGE /mg:               ,35000
#TAU-R:                      ,---
#CORR. CODE:                 ,020
#EXO:                        ,+1
#RANGE:                      ,50°C/20.0(K/min)/1200°C
#SEGMENT:                    ,S3/3
#SEG. 3:                     ,50°C/20.0(K/min)/1200°C

##Temp./°C,Time/min,DSC/(mW/mg),Mass/%,Sensit./(uV/mW)
  49.62800,36.01333,-3.791127e-02, 99.26040,0.73546
  49.61400,36.08000,-3.312674e-02, 99.23095,0.73545
  49.64200,36.14667,-3.110159e-02, 99.21321,0.73546
  49.64400,36.21333,-3.146960e-02, 99.23680,0.73547
  49.68600,36.28000,-2.944419e-02, 99.23680,0.73549
  49.71200,36.34667,-2.539506e-02, 99.24070,0.73551
  49.75400,36.41333,-2.281793e-02, 99.25241,0.73553
  49.82200,36.48000,-1.472040e-02, 99.24461,0.73558
  49.90800,36.54667,-7.911637e-03, 99.27601,0.73563
  50.02200,36.61333, 2.575633e-03, 99.29180,0.73570
  50.14800,36.68000, 1.066934e-02, 99.31326,0.73578
  50.29400,36.74667, 2.207178e-02, 99.30741,0.73587
  50.49300,36.81333, 3.751573e-02, 99.27015,0.73599
  50.70400,36.88000, 5.497665e-02, 99.32125,0.73612
  50.94600,36.94667, 7.003958e-02, 99.30351,0.73627
  51.22700,37.01333, 8.270431e-02, 99.15236,0.73645
  51.53600,37.08000,      0.10381, 99.11315,0.73664
  51.86100,37.14667,      0.12417, 99.19759,0.73684
  52.22600,37.21333,      0.14617, 99.23272,0.73706
  52.62600,37.28000,      0.16577, 99.24851,0.73730
  53.05600,37.34667,      0.18736, 99.23095,0.73757
  53.50900,37.41333,      0.20857, 99.22704,0.73784
  54.00600,37.48000,      0.22957, 99.26217,0.73814
  54.51300,37.54667,      0.25074, 99.40143,0.73844
  55.07800,37.61333,      0.27554, 99.20735,0.73878
  55.65400,37.68000,      0.29611, 99.29552,0.73912
  56.25000,37.74667,      0.31537, 99.29943,0.73948
  56.88200,37.81333,      0.33991, 99.27015,0.73985
  57.54200,37.88000,      0.36149, 99.25046,0.74023
  58.20100,37.94667,      0.38250, 99.27015,0.74062
  58.90000,38.01333,      0.40275, 99.28772,0.74102
  59.62500,38.08000,      0.42261, 99.24656,0.74143
  60.37000,38.14667,      0.44006, 99.22101,0.74186
  61.13300,38.21333,      0.46041, 99.25241,0.74229
  61.90600,38.28000,      0.47909, 99.22101,0.74272
  62.71600,38.34667,      0.49957, 99.29765,0.74318
  63.53500,38.41333,      0.52019, 99.29162,0.74363
  64.37000,38.48000,      0.53934, 99.30138,0.74409
  65.21800,38.54667,      0.56191, 99.26625,0.74455
  66.10900,38.61333,      0.58116, 99.30155,0.74503
  66.99000,38.68000,      0.60476, 99.31717,0.74550
  67.91700,38.74667,      0.62777, 99.30936,0.74599
  68.85000,38.81333,      0.65256, 99.26412,0.74648
  69.78800,38.88000,      0.67841, 99.24070,0.74697
  70.76800,38.94667,      0.70547, 99.14863,0.74747
  71.76600,39.01333,      0.72978, 99.28186,0.74798
  72.77400,39.08000,      0.76256, 99.25241,0.74849
  73.79500,39.14667,      0.78752, 99.24674,0.74900
  74.86500,39.21333,      0.81658, 99.22687,0.74953
  75.92800,39.28000,      0.84741, 99.25632,0.75005
  77.04300,39.34667,      0.88522, 99.27601,0.75059
  78.15600,39.41333,      0.92189, 99.24266,0.75112
  79.30500,39.48000,      0.95292, 99.19955,0.75166
  80.48600,39.54667,      0.99127, 99.20930,0.75221
  81.66900,39.61333,      1.03011, 99.20150,0.75275
  82.88100,39.68000,      1.07141, 99.24070,0.75330
  84.12200,39.74667,      1.11102, 99.20930,0.75385
  85.37400,39.81333,      1.15291, 99.13674,0.75440
  86.65500,39.88000,      1.19975, 99.16815,0.75496
  87.95000,39.94667,      1.24564, 99.16619,0.75551
  89.27600,40.01333,      1.29216, 99.18198,0.75606
  90.63100,40.08000,      1.33807, 99.18376,0.75662
  91.98800,40.14667,      1.38269, 99.19742,0.75717
  93.38300,40.21333,      1.43294, 99.18003,0.75773
  94.76500,40.28000,      1.48279, 99.14650,0.75827
  96.18100,40.34667,      1.53470, 99.12894,0.75881
  97.62700,40.41333,      1.58334, 99.08370,0.75935
  99.07000,40.48000,      1.63299, 99.13870,0.75989
 100.538,40.54667,      1.68667, 99.11918,0.76042
 102.034,40.61333,      1.73904, 99.10339,0.76095
 103.528,40.68000,      1.78816, 99.10144,0.76146
 105.028,40.74667,      1.84648, 99.11918,0.76197
 106.559,40.81333,      1.89975, 99.08370,0.76248
 108.094,40.88000,      1.94801, 99.03864,0.76297
 109.644,40.94667,      2.00793, 99.00529,0.76346
 111.213,41.01333,      2.06123, 98.98187,0.76394
 112.774,41.08000,      2.11610, 98.95419,0.76441
 114.359,41.14667,      2.17693, 98.91108,0.76487
 115.962,41.21333,      2.23047, 98.89742,0.76532
 117.579,41.28000,      2.29351, 98.85219,0.76577
 119.197,41.34667,      2.35811, 98.85219,0.76620
 120.821,41.41333,      2.41508, 98.79737,0.76662
 122.466,41.48000,      2.48278, 98.77377,0.76703
 124.119,41.54667,      2.54903, 98.76987,0.76743
 125.811,41.61333,      2.60924, 98.72268,0.76783
 127.476,41.68000,      2.67544, 98.69926,0.76820
 129.161,41.74667,      2.74637, 98.65793,0.76857
 130.874,41.81333,      2.80987, 98.61677,0.76893
 132.574,41.88000,      2.88270, 98.49720,0.76927
 134.295,41.94667,      2.95005, 98.57366,0.76960
 136.038,42.01333,      3.02055, 98.54031,0.76992
 137.779,42.08000,      3.09316, 98.50305,0.77022
 139.516,42.14667,      3.16964, 98.43440,0.77051
 141.251,42.21333,      3.24367, 98.42854,0.77079
 143.04,42.28000,      3.32101, 98.38348,0.77106
 144.795,42.34667,      3.39909, 98.38348,0.77130
 146.562,42.41333,      3.47788, 98.29318,0.77154
 148.354,42.48000,      3.55632, 98.16545,0.77176
 150.134,42.54667,      3.63515, 98.13423,0.77196
 151.918,42.61333,      3.72348, 98.10478,0.77215
 153.713,42.68000,      3.80394, 98.05776,0.77233
 155.517,42.74667,      3.88602, 98.04002,0.77249
 157.302,42.81333,      3.97253, 98.00472,0.77264
 159.095,42.88000,      4.06049, 98.04002,0.77277
 160.892,42.94667,      4.14867, 97.92826,0.77288
 162.704,43.01333,      4.23865, 97.85552,0.77298
 164.495,43.08000,      4.32660, 97.83015,0.77307
 166.306,43.14667,      4.42179, 97.80656,0.77314
 168.099,43.21333,      4.51565, 97.74180,0.77320
 169.925,43.28000,      4.61116, 97.68876,0.77324
 171.725,43.34667,      4.70430, 97.62401,0.77326
 173.528,43.41333,      4.80489, 97.59261,0.77327
 175.359,43.48000,      4.90136, 97.59278,0.77327
 177.153,43.54667,      5.00335, 97.56919,0.77325
 178.975,43.61333,      5.10703, 97.56919,0.77321
 180.788,43.68000,      5.21186, 97.56937,0.77317
 182.595,43.74667,      5.31979, 97.51827,0.77310
 184.41,43.81333,      5.42871, 97.49468,0.77302
 186.234,43.88000,      5.54039, 97.43968,0.77293
 188.037,43.94667,      5.65009, 97.37493,0.77282
 189.854,44.01333,      5.76292, 97.32774,0.77270
 191.664,44.08000,      5.88202, 97.28090,0.77256
 193.468,44.14667,      6.00354, 97.25145,0.77241
 195.276,44.21333,      6.12015, 97.23371,0.77225
 197.069,44.28000,      6.24076, 97.18475,0.77207
 198.872,44.34667,      6.36226, 97.20817,0.77188
 200.655,44.41333,      6.48584, 97.13366,0.77168
 202.452,44.48000,      6.61067, 97.11592,0.77146
 204.234,44.54667,      6.73410, 97.07494,0.77123
 206.032,44.61333,      6.85598, 97.05134,0.77098
 207.814,44.68000,      6.98753, 97.02775,0.77072
 209.595,44.74667,      7.11138, 96.98073,0.77045
 211.373,44.81333,      7.23262, 96.95128,0.77017
 213.135,44.88000,      7.35353, 96.90800,0.76987
 214.894,44.94667,      7.47007, 96.86879,0.76957
 216.655,45.01333,      7.58772, 96.85708,0.76925
 218.387,45.08000,      7.70501, 96.81983,0.76892
 220.138,45.14667,      7.80917, 96.78062,0.76858
 221.883,45.21333,      7.91214, 96.78062,0.76822
 223.609,45.28000,      8.01546, 96.73148,0.76786
 225.328,45.34667,      8.11722, 96.68429,0.76749
 227.065,45.41333,      8.20461, 96.66673,0.76710
 228.78,45.48000,      8.29375, 96.63728,0.76671
 230.492,45.54667,      8.37797, 96.61173,0.76630
 232.196,45.61333,      8.45639, 96.58831,0.76589
 233.882,45.68000,      8.53319, 96.56472,0.76546
 235.575,45.74667,      8.60421, 96.54715,0.76503
 237.27,45.81333,      8.66553, 96.50387,0.76458
 238.939,45.88000,      8.73157, 96.48045,0.76413
 240.616,45.94667,      8.79127, 96.45295,0.76367
 242.291,46.01333,      8.84354, 96.42936,0.76320
 243.934,46.08000,      8.89589, 96.40594,0.76272
 245.595,46.14667,      8.94547, 96.35290,0.76223
 247.239,46.21333,      8.99535, 96.32345,0.76174
 248.885,46.28000,      9.03884, 96.28619,0.76123
 250.506,46.34667,      9.07975, 96.23900,0.76072
 252.138,46.41333,      9.11926, 96.27040,0.76020
 253.76,46.48000,      9.15410, 96.27253,0.75967
 255.372,46.54667,      9.18478, 96.24894,0.75914
 256.99,46.61333,      9.22028, 96.18401,0.75860
 258.58,46.68000,      9.24868, 96.14888,0.75805
 260.173,46.74667,      9.27743, 96.10169,0.75750
 261.76,46.81333,      9.30326, 96.05468,0.75694
 263.36,46.88000,      9.32787, 96.00766,0.75636
 264.923,46.94667,      9.35371, 95.96047,0.75579
 266.493,47.01333,      9.37901, 95.96047,0.75521
 268.048,47.08000,      9.40528, 95.93706,0.75463
 269.603,47.14667,      9.43493, 95.91346,0.75403
 271.155,47.21333,      9.45662, 95.93706,0.75343
 272.708,47.28000,      9.48601, 95.91346,0.75283
 274.245,47.34667,      9.50773, 95.87993,0.75222
 275.764,47.41333,      9.53706, 95.83487,0.75161
 277.304,47.48000,      9.55799, 95.83487,0.75098
 278.814,47.54667,      9.58522, 95.83700,0.75036
 280.347,47.61333,      9.60945, 95.81340,0.74972
 281.838,47.68000,      9.63631, 95.81323,0.74909
 283.354,47.74667,      9.66091, 95.81323,0.74844
 284.842,47.81333,      9.68477, 95.81323,0.74780
 286.337,47.88000,      9.71296, 95.81340,0.74715
 287.829,47.94667,      9.73893, 95.78200,0.74649
 289.314,48.01333,      9.76444, 95.76426,0.74583
 290.784,48.08000,      9.78510, 95.71530,0.74517
 292.261,48.14667,      9.81392, 95.66829,0.74450
 293.717,48.21333,      9.84003, 95.66829,0.74383
 295.18,48.28000,      9.86267, 95.63884,0.74315
 296.651,48.34667,      9.88950, 95.59360,0.74246
 298.098,48.41333,      9.91176, 95.54641,0.74178
 299.561,48.48000,      9.94118, 95.49957,0.74108
 300.996,48.54667,      9.96380, 95.51128,0.74039
 302.433,48.61333,      9.98783, 95.53488,0.73969
 303.87,48.68000,     10.00998, 95.52299,0.73899
 305.313,48.74667,     10.03816, 95.46800,0.73828
 306.722,48.81333,     10.06055, 95.48769,0.73758
 308.15,48.88000,     10.09018, 95.48574,0.73686
 309.575,48.94667,     10.11404, 95.48574,0.73614
 310.99,49.01333,     10.13703, 95.48574,0.73542
 312.407,49.08000,     10.16606, 95.46800,0.73469
 313.815,49.14667,     10.18354, 95.48574,0.73396
 315.223,49.21333,     10.21368, 95.47793,0.73322
 316.618,49.28000,     10.23167, 95.49549,0.73249
 318.023,49.34667,     10.26483, 95.49549,0.73174
 319.419,49.41333,     10.28362, 95.49549,0.73100
 320.809,49.48000,     10.31619, 95.48379,0.73025
 322.197,49.54667,     10.33460, 95.49567,0.72950
 323.584,49.61333,     10.35757, 95.49567,0.72875
 324.97,49.68000,     10.38139, 95.46817,0.72799
 326.347,49.74667,     10.40229, 95.37983,0.72723
 327.729,49.81333,     10.42781, 95.39349,0.72646
 329.088,49.88000,     10.44395, 95.47403,0.72570
 330.467,49.94667,     10.46371, 95.43677,0.72493
 331.829,50.01333,     10.48400, 95.51519,0.72415
 333.2,50.08000,     10.50130, 95.45629,0.72337
 334.568,50.14667,     10.51831, 95.47988,0.72259
 335.927,50.21333,     10.53928, 95.53080,0.72181
 337.284,50.28000,     10.55152, 95.47403,0.72102
 338.648,50.34667,     10.57030, 95.52086,0.72023
 339.996,50.41333,     10.58962, 95.52086,0.71944
 341.344,50.48000,     10.60415, 95.54446,0.71864
 342.695,50.54667,     10.61597, 95.52104,0.71784
 344.047,50.61333,     10.63582, 95.52104,0.71704
 345.392,50.68000,     10.64739, 95.52104,0.71623
 346.731,50.74667,     10.66052, 95.52902,0.71543
 348.08,50.81333,     10.66909, 95.52885,0.71461
 349.408,50.88000,     10.68324, 95.52885,0.71380
 350.738,50.94667,     10.69579, 95.52885,0.71299
 352.083,51.01333,     10.70629, 95.56415,0.71217
 353.415,51.08000,     10.71751, 95.59963,0.71134
 354.75,51.14667,     10.72599, 95.59945,0.71052
 356.078,51.21333,     10.73562, 95.62305,0.70969
 357.397,51.28000,     10.74124, 95.62305,0.70887
 358.733,51.34667,     10.74786, 95.64664,0.70803
 360.065,51.41333,     10.75470, 95.64647,0.70719
 361.386,51.48000,     10.75882, 95.67006,0.70635
 362.711,51.54667,     10.76592, 95.69366,0.70551
 364.028,51.61333,     10.77226, 95.69366,0.70466
 365.359,51.68000,     10.77341, 95.71725,0.70381
 366.67,51.74667,     10.77731, 95.76426,0.70296
 367.995,51.81333,     10.78334, 95.80560,0.70211
 369.317,51.88000,     10.78400, 95.82902,0.70125
 370.626,51.94667,     10.78536, 95.82902,0.70039
 371.942,52.01333,     10.78510, 95.84676,0.69953
 373.258,52.08000,     10.78567, 95.89572,0.69867
 374.584,52.14667,     10.78193, 95.85651,0.69779
 375.878,52.21333,     10.78354, 95.86432,0.69694
 377.199,52.28000,     10.78373, 95.90158,0.69606
 378.499,52.34667,     10.77732, 95.94078,0.69519
 379.819,52.41333,     10.77213, 95.96438,0.69431
 381.126,52.48000,     10.76333, 95.96438,0.69343
 382.436,52.54667,     10.76064, 95.98797,0.69255
 383.742,52.61333,     10.75579, 96.01139,0.69166
 385.048,52.68000,     10.74687, 96.03498,0.69077
 386.349,52.74667,     10.73752, 96.05858,0.68989
 387.664,52.81333,     10.72578, 96.02913,0.68899
 388.968,52.88000,     10.71906, 96.03498,0.68810
 390.275,52.94667,     10.71417, 96.05858,0.68720
 391.565,53.01333,     10.70597, 96.08200,0.68631
 392.871,53.08000,     10.69501, 96.03498,0.68540
 394.179,53.14667,     10.68962, 96.05858,0.68450
 395.484,53.21333,     10.67907, 96.06834,0.68359
 396.776,53.28000,     10.67811, 96.10967,0.68269
 398.079,53.34667,     10.67115, 96.16059,0.68177
 399.377,53.41333,     10.66357, 96.16059,0.68086
 400.689,53.48000,     10.65835, 96.13699,0.67994
 401.982,53.54667,     10.65493, 96.13912,0.67903
 403.294,53.61333,     10.65875, 96.16272,0.67810
 404.599,53.68000,     10.65614, 96.18613,0.67717
 405.891,53.74667,     10.65421, 96.26064,0.67625
 407.194,53.81333,     10.65545, 96.26064,0.67532
 408.497,53.88000,     10.65894, 96.29595,0.67439
 409.78,53.94667,     10.66546, 96.30766,0.67347
 411.095,54.01333,     10.67200, 96.39405,0.67253
 412.396,54.08000,     10.68347, 96.49411,0.67159
 413.692,54.14667,     10.69273, 96.29595,0.67065
 414.996,54.21333,     10.70618, 96.33320,0.66971
 416.292,54.28000,     10.72529, 96.33906,0.66877
 417.595,54.34667,     10.74314, 96.36265,0.66782
 418.889,54.41333,     10.76503, 96.38022,0.66688
 420.195,54.48000,     10.78655, 96.43521,0.66592
 421.491,54.54667,     10.81639, 96.51575,0.66497
 422.801,54.61333,     10.84713, 96.56081,0.66401
 424.102,54.68000,     10.88360, 96.54130,0.66306
 425.398,54.74667,     10.92158, 96.58831,0.66210
 426.7,54.81333,     10.96345, 96.58831,0.66114
 428,54.88000,     11.00771, 96.61191,0.66018
 429.314,54.94667,     11.05805, 96.61173,0.65921
 430.601,55.01333,     11.11153, 96.61191,0.65825
 431.905,55.08000,     11.16849, 96.66673,0.65728
 433.217,55.14667,     11.23236, 96.70788,0.65630
 434.51,55.21333,     11.30425, 96.73148,0.65534
 435.807,55.28000,     11.37334, 96.74337,0.65437
 437.122,55.34667,     11.45118, 96.75898,0.65338
 438.415,55.41333,     11.50659, 96.78843,0.65241
 439.72,55.48000,     11.54988, 96.81788,0.65143
 441.024,55.54667,     11.59749, 96.85513,0.65045
 442.333,55.61333,     11.70577, 96.88050,0.64946
 443.625,55.68000,     11.81250, 96.93354,0.64849
 444.945,55.74667,     11.93273, 96.86684,0.64749
 446.237,55.81333,     12.05358, 96.97665,0.64651
 447.54,55.88000,     12.17730, 97.10031,0.64552
 448.855,55.94667,     12.30789, 97.11609,0.64452
 450.168,56.01333,     12.43321, 97.15530,0.64352
 451.465,56.08000,     12.56902, 97.18670,0.64254
 452.777,56.14667,     12.71100, 97.23567,0.64154
 454.086,56.21333,     12.86164, 97.26121,0.64054
 455.397,56.28000,     13.01195, 97.31993,0.63953
 456.7,56.34667,     13.16201, 97.38859,0.63854
 458.003,56.41333,     13.32593, 97.47694,0.63754
 459.306,56.48000,     13.48785, 97.47108,0.63654
 460.624,56.54667,     13.65309, 97.53779,0.63552
 461.938,56.61333,     13.83461, 97.52998,0.63451
 463.251,56.68000,     14.01330, 97.60644,0.63350
 464.568,56.74667,     14.19715, 97.64175,0.63249
 465.863,56.81333,     14.38979, 97.76735,0.63149
 467.172,56.88000,     14.58332, 97.79857,0.63048
 468.481,56.94667,     14.78373, 97.85960,0.62946
 469.798,57.01333,     14.98755, 97.89881,0.62845
 471.115,57.08000,     15.20477, 97.97722,0.62743
 472.424,57.14667,     15.41522, 98.06752,0.62641
 473.738,57.21333,     15.64444, 98.14203,0.62539
 475.039,57.28000,     15.87677, 98.25593,0.62438
 476.361,57.34667,     16.11898, 98.36574,0.62335
 477.671,57.41333,     16.36503, 98.54616,0.62234
 478.986,57.48000,     16.61702, 98.48354,0.62131
 480.311,57.54667,     16.88033, 98.63451,0.62028
 481.62,57.61333,     17.14375, 98.75621,0.61926
 482.929,57.68000,     17.42054, 98.80322,0.61824
 484.26,57.74667,     17.70380, 98.88554,0.61720
 485.56,57.81333,     17.99018, 98.97779,0.61619
 486.872,57.88000,     18.28154, 99.08760,0.61516
 488.19,57.94667,     18.58990, 99.23077,0.61413
 489.517,58.01333,     18.89378, 99.36240,0.61309
 490.831,58.08000,     19.21255, 99.48002,0.61206
 492.149,58.14667,     19.53871, 99.58611,0.61103
 493.461,58.21333,     19.86827, 99.71934,0.61001
 494.779,58.28000,     20.20645, 99.83892,0.60897
 496.1,58.34667,     20.54609, 99.97037,0.60794
 497.417,58.41333,     20.88880,100.131,0.60691
 498.726,58.48000,     21.23426,100.247,0.60588
 500.049,58.54667,     21.58397,100.408,0.60484
 501.369,58.61333,     21.93795,100.52,0.60381
 502.683,58.68000,     22.29523,100.708,0.60278
 504.008,58.74667,     22.65024,100.893,0.60174
 505.331,58.81333,     23.00507,101.105,0.60070
 506.652,58.88000,     23.35837,101.254,0.59966
 507.971,58.94667,     23.71103,101.411,0.59862
 509.292,59.01333,     24.04640,101.563,0.59759
 510.614,59.08000,     24.38162,101.746,0.59655
 511.925,59.14667,     24.69969,101.911,0.59552
 513.253,59.21333,     25.01282,102.13,0.59448
 514.56,59.28000,     25.30696,102.301,0.59345
 515.898,59.34667,     25.58969,102.499,0.59240
 517.193,59.41333,     25.85250,102.686,0.59138
 518.529,59.48000,     26.09905,102.872,0.59033
 519.839,59.54667,     26.31870,103.07,0.58930
 521.154,59.61333,     26.52295,103.257,0.58827
 522.461,59.68000,     26.70480,103.482,0.58725
 523.779,59.74667,     26.86575,103.696,0.58621
 525.086,59.81333,     26.99979,103.851,0.58519
 526.4,59.88000,     27.11091,104.037,0.58416
 527.709,59.94667,     27.19461,104.23,0.58313
 529.024,60.01333,     27.26114,104.479,0.58210
 530.332,60.08000,     27.29968,104.583,0.58107
 531.638,60.14667,     27.32241,104.838,0.58005
 532.945,60.21333,     27.31648,105.018,0.57903
 534.246,60.28000,     27.29623,105.201,0.57801
 535.55,60.34667,     27.25678,105.362,0.57699
 536.865,60.41333,     27.19571,105.507,0.57596
 538.171,60.48000,     27.12277,105.721,0.57494
 539.46,60.54667,     27.04185,105.913,0.57393
 540.761,60.61333,     26.94051,106.062,0.57291
 542.06,60.68000,     26.83279,106.237,0.57190
 543.363,60.74667,     26.71248,106.401,0.57088
 544.669,60.81333,     26.59207,106.572,0.56987
 545.966,60.88000,     26.46182,106.711,0.56885
 547.267,60.94667,     26.33242,106.886,0.56784
 548.56,61.01333,     26.19054,107.084,0.56683
 549.877,61.08000,     26.05592,107.255,0.56581
 551.174,61.14667,     25.91528,107.416,0.56480
 552.474,61.21333,     25.78285,107.532,0.56379
 553.77,61.28000,     25.64568,107.641,0.56279
 555.072,61.34667,     25.51735,107.788,0.56178
 556.375,61.41333,     25.39580,108.002,0.56077
 557.676,61.48000,     25.27249,108.093,0.55976
 558.979,61.54667,     25.15144,108.228,0.55875
 560.267,61.61333,     25.04614,108.389,0.55775
 561.583,61.68000,     24.94601,108.589,0.55674
 562.876,61.74667,     24.85613,108.767,0.55574
 564.183,61.81333,     24.77198,108.848,0.55473
 565.477,61.88000,     24.70145,109.007,0.55373
 566.774,61.94667,     24.63734,109.152,0.55274
 568.092,62.01333,     24.58619,109.305,0.55172
 569.398,62.08000,     24.54423,109.409,0.55072
 570.71,62.14667,     24.52369,109.552,0.54971
 572.008,62.21333,     24.51785,109.682,0.54872
 573.314,62.28000,     24.53766,109.762,0.54772
 574.63,62.34667,     24.56899,109.858,0.54671
 575.936,62.41333,     24.62954,110.011,0.54571
 577.239,62.48000,     24.71328,110.156,0.54472
 578.556,62.54667,     24.82788,110.262,0.54371
 579.869,62.61333,     24.97538,110.429,0.54271
 581.18,62.68000,     25.17051,110.6,0.54172
 582.504,62.74667,     25.39982,110.749,0.54071
 583.827,62.81333,     25.68080,110.923,0.53971
 585.124,62.88000,     26.02111,111.12,0.53872
 586.454,62.94667,     26.41768,111.294,0.53772
 587.781,63.01333,     26.87912,111.473,0.53671
 589.106,63.08000,     27.41137,111.638,0.53571
 590.435,63.14667,     28.02239,111.82,0.53471
 591.766,63.21333,     28.72270,112.005,0.53371
 593.102,63.28000,     29.51877,112.218,0.53271
 594.435,63.34667,     30.41793,112.454,0.53170
 595.778,63.41333,     31.43076,112.75,0.53070
 597.121,63.48000,     32.62545,113.029,0.52969
 598.478,63.54667,     34.37262,113.38,0.52868
 599.914,63.61333,     45.99421,113.811,0.52761
 601.335,63.68000,     47.31590,114.455,0.52655
 602.714,63.74667,     44.50021,114.971,0.52552
 604.055,63.81333,     41.49567,115.23,0.52453
 605.369,63.88000,     39.11201,115.483,0.52355
 606.664,63.94667,     37.19777,115.654,0.52259
 607.944,64.01333,     35.58752,115.834,0.52165
 609.234,64.08000,     34.18183,116.054,0.52070
 610.512,64.14667,     32.92581,116.242,0.51976
 611.804,64.21333,     31.77715,116.387,0.51881
 613.075,64.28000,     30.72155,116.564,0.51787
 614.354,64.34667,     29.73570,116.729,0.51693
 615.636,64.41333,     28.80243,116.823,0.51600
 616.913,64.48000,     27.92566,116.937,0.51506
 618.197,64.54667,     27.08512,117.07,0.51413
 619.493,64.61333,     26.28723,117.162,0.51318
 620.776,64.68000,     25.52390,117.243,0.51225
 622.059,64.74667,     24.79609,117.362,0.51132
 623.361,64.81333,     24.10491,117.451,0.51038
 624.642,64.88000,     23.44627,117.547,0.50945
 625.948,64.94667,     22.82188,117.576,0.50851
 627.227,65.01333,     22.22839,117.666,0.50759
 628.532,65.08000,     21.65990,117.7,0.50665
 629.815,65.14667,     21.12391,117.729,0.50573
 631.12,65.21333,     20.61843,117.784,0.50480
 632.424,65.28000,     20.14456,117.843,0.50387
 633.714,65.34667,     19.69081,117.867,0.50295
 635.031,65.41333,     19.26598,117.91,0.50201
 636.329,65.48000,     18.86546,117.943,0.50109
 637.631,65.54667,     18.49489,117.99,0.50016
 638.941,65.61333,     18.15128,118.043,0.49924
 640.244,65.68000,     17.83005,118.072,0.49832
 641.562,65.74667,     17.52698,118.1,0.49739
 642.872,65.81333,     17.24651,118.131,0.49647
 644.184,65.88000,     16.98573,118.125,0.49555
 645.481,65.94667,     16.74737,118.137,0.49464
 646.803,66.01333,     16.52948,118.163,0.49372
 648.126,66.08000,     16.33297,118.235,0.49280
 649.444,66.14667,     16.14931,118.282,0.49188
 650.757,66.21333,     15.99070,118.325,0.49097
 652.082,66.28000,     15.83860,118.332,0.49005
 653.396,66.34667,     15.70914,118.379,0.48915
 654.716,66.41333,     15.58509,118.353,0.48824
 656.034,66.48000,     15.47907,118.353,0.48733
 657.365,66.54667,     15.37453,118.353,0.48642
 658.696,66.61333,     15.25449,118.377,0.48551
 660.016,66.68000,     15.06498,118.424,0.48461
 661.336,66.74667,     14.80111,118.361,0.48371
 662.668,66.81333,     14.58213,118.335,0.48281
 663.993,66.88000,     14.70674,118.335,0.48191
 665.315,66.94667,     14.87220,118.408,0.48102
 666.648,67.01333,     14.97360,118.443,0.48012
 667.983,67.08000,     15.04145,118.439,0.47922
 669.317,67.14667,     15.07806,118.463,0.47833
 670.64,67.21333,     15.09522,118.435,0.47744
 671.978,67.28000,     15.10843,118.435,0.47655
 673.296,67.34667,     15.12319,118.463,0.47567
 674.637,67.41333,     15.13528,118.439,0.47478
 675.963,67.48000,     15.13702,118.445,0.47391
 677.314,67.54667,     15.13407,118.463,0.47302
 678.635,67.61333,     15.13069,118.486,0.47215
 679.969,67.68000,     15.13180,118.51,0.47127
 681.301,67.74667,     15.13222,118.486,0.47040
 682.633,67.81333,     15.13459,118.486,0.46953
 683.961,67.88000,     15.14488,118.51,0.46867
 685.291,67.94667,     15.15345,118.516,0.46780
 686.626,68.01333,     15.16120,118.504,0.46694
 687.962,68.08000,     15.16573,118.516,0.46608
 689.29,68.14667,     15.17788,118.487,0.46522
 690.618,68.21333,     15.18329,118.518,0.46437
 691.946,68.28000,     15.19244,118.537,0.46352
 693.287,68.34667,     15.20182,118.52,0.46266
 694.617,68.41333,     15.21179,118.526,0.46182
 695.956,68.48000,     15.21487,118.526,0.46097
 697.284,68.54667,     15.23323,118.526,0.46013
 698.612,68.61333,     15.24450,118.526,0.45929
 699.949,68.68000,     15.26655,118.526,0.45845
 701.281,68.74667,     15.28020,118.502,0.45761
 702.61,68.81333,     15.29436,118.579,0.45678
 703.945,68.88000,     15.30771,118.628,0.45595
 705.283,68.94667,     15.33150,118.447,0.45512
 706.618,69.01333,     15.35582,118.52,0.45429
 707.943,69.08000,     15.37427,118.537,0.45348
 709.273,69.14667,     15.39280,118.537,0.45266
 710.614,69.21333,     15.40315,118.537,0.45184
 711.945,69.28000,     15.42224,118.537,0.45102
 713.276,69.34667,     15.44041,118.537,0.45021
 714.611,69.41333,     15.44781,118.5,0.44940
 715.947,69.48000,     15.46753,118.488,0.44859
 717.286,69.54667,     15.48154,118.526,0.44778
 718.619,69.61333,     15.49177,118.543,0.44698
 719.95,69.68000,     15.50674,118.526,0.44618
 721.279,69.74667,     15.51769,118.526,0.44539
 722.608,69.81333,     15.54107,118.52,0.44459
 723.943,69.88000,     15.55969,118.602,0.44380
 725.284,69.94667,     15.57015,118.578,0.44301
 726.619,70.01333,     15.58166,118.602,0.44222
 727.964,70.08000,     15.59854,118.575,0.44143
 729.287,70.14667,     15.61523,118.49,0.44065
 730.618,70.21333,     15.62805,118.408,0.43988
 731.955,70.28000,     15.63571,118.408,0.43910
 733.295,70.34667,     15.65293,118.432,0.43832
 734.623,70.41333,     15.66090,118.408,0.43755
 735.953,70.48000,     15.68279,118.443,0.43679
 737.298,70.54667,     15.69255,118.549,0.43602
 738.635,70.61333,     15.70924,118.51,0.43525
 739.963,70.68000,     15.72663,118.457,0.43449
 741.304,70.74667,     15.74894,118.451,0.43373
 742.628,70.81333,     15.75994,118.528,0.43298
 743.971,70.88000,     15.76814,118.59,0.43223
 745.301,70.94667,     15.77286,118.535,0.43148
 746.637,71.01333,     15.79302,118.506,0.43073
 747.969,71.08000,     15.81149,118.482,0.42999
 749.314,71.14667,     15.82200,118.435,0.42924
 750.64,71.21333,     15.84564,118.471,0.42851
 751.985,71.28000,     15.86015,118.539,0.42776
 753.315,71.34667,     15.87906,118.477,0.42703
 754.652,71.41333,     15.89458,118.306,0.42630
 755.978,71.48000,     15.90824,118.38,0.42558
 757.319,71.54667,     15.93012,118.404,0.42485
 758.663,71.61333,     15.95107,118.432,0.42412
 759.987,71.68000,     15.97318,118.414,0.42341
 761.321,71.74667,     15.99387,118.481,0.42269
 762.65,71.81333,     16.01987,118.488,0.42198
 763.982,71.88000,     16.04110,118.59,0.42127
 765.316,71.94667,     16.05655,118.482,0.42056
 766.656,72.01333,     16.07851,118.502,0.41985
 767.992,72.08000,     16.09293,118.463,0.41915
 769.33,72.14667,     16.10572,118.398,0.41844
 770.66,72.21333,     16.12994,118.341,0.41775
 772.002,72.28000,     16.14173,118.269,0.41705
 773.335,72.34667,     16.17278,118.276,0.41636
 774.674,72.41333,     16.19547,118.271,0.41567
 776.01,72.48000,     16.22460,118.453,0.41498
 777.34,72.54667,     16.24673,118.4,0.41430
 778.674,72.61333,     16.27480,118.349,0.41361
 780.013,72.68000,     16.30394,118.302,0.41293
 781.34,72.74667,     16.33414,118.302,0.41226
 782.677,72.81333,     16.36190,118.31,0.41159
 784.008,72.88000,     16.39215,118.398,0.41092
 785.343,72.94667,     16.42512,118.451,0.41025
 786.68,73.01333,     16.46605,118.396,0.40958
 788.023,73.08000,     16.49190,118.296,0.40892
 789.355,73.14667,     16.52247,118.296,0.40826
 790.681,73.21333,     16.55092,118.369,0.40760
 792.013,73.28000,     16.59012,118.367,0.40695
 793.356,73.34667,     16.62089,118.367,0.40630
 794.688,73.41333,     16.65643,118.343,0.40565
 796.025,73.48000,     16.68405,118.32,0.40500
 797.358,73.54667,     16.72428,118.343,0.40436
 798.701,73.61333,     16.75534,118.316,0.40371
 800.04,73.68000,     16.79538,118.265,0.40307
 801.369,73.74667,     16.82917,118.247,0.40244
 802.702,73.81333,     16.86439,118.241,0.40181
 804.04,73.88000,     16.89801,118.218,0.40118
 805.369,73.94667,     16.94868,118.218,0.40055
 806.715,74.01333,     16.99838,118.218,0.39993
 808.041,74.08000,     17.03992,118.241,0.39931
 809.387,74.14667,     17.09172,118.288,0.39868
 810.728,74.21333,     17.13258,118.288,0.39806
 812.066,74.28000,     17.17442,118.229,0.39745
 813.399,74.34667,     17.22537,118.274,0.39684
 814.738,74.41333,     17.26419,118.174,0.39623
 816.079,74.48000,     17.32015,118.229,0.39562
 817.411,74.54667,     17.36537,118.316,0.39502
 818.748,74.61333,     17.41105,118.288,0.39442
 820.081,74.68000,     17.45599,118.255,0.39382
 821.419,74.74667,     17.51102,118.163,0.39323
 822.741,74.81333,     17.55682,118.212,0.39264
 824.089,74.88000,     17.60039,118.29,0.39204
 825.418,74.94667,     17.64083,118.233,0.39146
 826.763,75.01333,     17.67466,118.276,0.39087
 828.105,75.08000,     17.71153,118.229,0.39029
 829.434,75.14667,     17.75022,118.206,0.38971
 830.769,75.21333,     17.78589,118.225,0.38913
 832.109,75.28000,     17.80981,118.239,0.38856
 833.451,75.34667,     17.83545,118.288,0.38799
 834.785,75.41333,     17.84447,118.288,0.38742
 836.13,75.48000,     17.85326,118.261,0.38685
 837.465,75.54667,     17.86246,118.233,0.38628
 838.799,75.61333,     17.85540,118.176,0.38572
 840.137,75.68000,     17.84934,118.092,0.38517
 841.467,75.74667,     17.83453,118.222,0.38461
 842.807,75.81333,     17.81940,118.361,0.38406
 844.145,75.88000,     17.79913,118.302,0.38351
 845.491,75.94667,     17.76787,118.222,0.38296
 846.815,76.01333,     17.73422,118.165,0.38242
 848.164,76.08000,     17.70543,118.141,0.38187
 849.493,76.14667,     17.66222,118.057,0.38133
 850.831,76.21333,     17.62356,118.029,0.38079
 852.173,76.28000,     17.57798,118.143,0.38025
 853.503,76.34667,     17.53906,118.208,0.37973
 854.847,76.41333,     17.47625,118.225,0.37919
 856.181,76.48000,     17.43621,118.225,0.37867
 857.523,76.54667,     17.39178,118.174,0.37814
 858.865,76.61333,     17.35034,118.149,0.37761
 860.198,76.68000,     17.30348,118.149,0.37710
 861.528,76.74667,     17.26782,118.149,0.37658
 862.862,76.81333,     17.21979,118.188,0.37607
 864.205,76.88000,     17.16950,118.194,0.37555
 865.546,76.94667,     17.13806,118.18,0.37504
 866.873,77.01333,     17.09533,118.18,0.37454
 868.204,77.08000,     17.06149,118.208,0.37404
 869.546,77.14667,     17.02944,118.237,0.37353
 870.881,77.21333,     17.00942,118.278,0.37303
 872.226,77.28000,     16.98758,118.278,0.37253
 873.554,77.34667,     16.97001,118.253,0.37204
 874.892,77.41333,     16.95937,118.229,0.37155
 876.226,77.48000,     16.94269,118.204,0.37106
 877.561,77.54667,     16.93609,118.204,0.37057
 878.912,77.61333,     16.93732,118.255,0.37008
 880.236,77.68000,     16.92920,118.349,0.36960
 881.573,77.74667,     16.93216,118.339,0.36912
 882.9,77.81333,     16.93633,118.31,0.36865
 884.236,77.88000,     16.93209,118.29,0.36817
 885.569,77.94667,     16.93504,118.402,0.36770
 886.916,78.01333,     16.93148,118.447,0.36723
 888.251,78.08000,     16.92982,118.406,0.36676
 889.602,78.14667,     16.94124,118.302,0.36629
 890.928,78.21333,     16.93923,118.29,0.36583
 892.266,78.28000,     16.94767,118.318,0.36537
 893.607,78.34667,     16.96052,118.388,0.36491
 894.941,78.41333,     16.97281,118.357,0.36445
 896.27,78.48000,     16.98569,118.347,0.36400
 897.604,78.54667,     16.99261,118.396,0.36355
 898.938,78.61333,     17.00131,118.555,0.36310
 900.28,78.68000,     17.01453,118.484,0.36265
 901.619,78.74667,     17.02576,118.375,0.36220
 902.958,78.81333,     17.05224,118.434,0.36176
 904.291,78.88000,     17.05424,118.508,0.36132
 905.631,78.94667,     17.07463,118.569,0.36088
 906.972,79.01333,     17.07883,118.583,0.36045
 908.305,79.08000,     17.07942,118.5,0.36001
 909.641,79.14667,     17.09125,118.584,0.35958
 910.981,79.21333,     17.11022,118.73,0.35915
 912.312,79.28000,     17.11767,118.708,0.35873
 913.644,79.34667,     17.12732,118.714,0.35830
 914.995,79.41333,     17.14323,118.685,0.35788
 916.331,79.48000,     17.14483,118.659,0.35745
 917.676,79.54667,     17.15936,118.639,0.35703
 919.011,79.61333,     17.18011,118.639,0.35662
 920.349,79.68000,     17.19098,118.663,0.35620
 921.681,79.74667,     17.20168,118.712,0.35579
 923.022,79.81333,     17.20062,118.767,0.35538
 924.357,79.88000,     17.21692,118.82,0.35498
 925.701,79.94667,     17.22755,118.696,0.35457
 927.046,80.01333,     17.23200,118.665,0.35416
 928.379,80.08000,     17.24193,118.745,0.35376
 929.722,80.14667,     17.24502,118.792,0.35336
 931.053,80.21333,     17.26396,118.822,0.35297
 932.392,80.28000,     17.27681,118.957,0.35257
 933.735,80.34667,     17.28657,118.981,0.35218
 935.072,80.41333,     17.29847,119.053,0.35178
 936.415,80.48000,     17.30345,118.934,0.35139
 937.752,80.54667,     17.31790,118.928,0.35101
 939.077,80.61333,     17.32709,118.942,0.35063
 940.427,80.68000,     17.33926,118.942,0.35024
 941.76,80.74667,     17.35498,118.941,0.34986
 943.091,80.81333,     17.36558,119.124,0.34948
 944.443,80.88000,     17.37408,119.012,0.34910
 945.774,80.94667,     17.37599,119.083,0.34873
 947.103,81.01333,     17.38865,119.118,0.34836
 948.447,81.08000,     17.40652,119.198,0.34798
 949.781,81.14667,     17.41328,119.216,0.34761
 951.119,81.21333,     17.41807,119.195,0.34725
 952.455,81.28000,     17.42548,119.171,0.34688
 953.789,81.34667,     17.42653,119.195,0.34652
 955.121,81.41333,     17.43332,119.165,0.34616
 956.458,81.48000,     17.44872,119.189,0.34580
 957.794,81.54667,     17.45268,119.344,0.34544
 959.136,81.61333,     17.45781,119.334,0.34508
 960.481,81.68000,     17.44797,119.308,0.34473
 961.81,81.74667,     17.46926,119.403,0.34438
 963.145,81.81333,     17.47168,119.536,0.34403
 964.486,81.88000,     17.47529,119.609,0.34368
 965.81,81.94667,     17.47425,119.457,0.34333
 967.157,82.01333,     17.46237,119.391,0.34299
 968.487,82.08000,     17.45686,119.334,0.34265
 969.824,82.14667,     17.45689,119.452,0.34230
 971.166,82.21333,     17.45728,119.62,0.34196
 972.49,82.28000,     17.44428,119.567,0.34163
 973.828,82.34667,     17.44722,119.636,0.34129
 975.17,82.41333,     17.44734,119.438,0.34096
 976.508,82.48000,     17.44851,119.718,0.34062
 977.839,82.54667,     17.42923,119.701,0.34029
 979.175,82.61333,     17.39954,119.842,0.33996
 980.505,82.68000,     17.38716,119.805,0.33964
 981.855,82.74667,     17.36854,119.854,0.33931
 983.173,82.81333,     17.34581,119.854,0.33899
 984.519,82.88000,     17.31931,119.918,0.33866
 985.854,82.94667,     17.27053,119.911,0.33834
 987.188,83.01333,     17.24639,119.897,0.33802
 988.529,83.08000,     17.22422,119.926,0.33770
 989.858,83.14667,     17.19496,119.879,0.33739
 991.189,83.21333,     17.16639,119.903,0.33707
 992.527,83.28000,     17.12933,119.956,0.33676
 993.867,83.34667,     17.10341,120.036,0.33645
 995.206,83.41333,     17.07735,120.103,0.33614
 996.539,83.48000,     17.04263,120.132,0.33583
 997.883,83.54667,     17.02404,120.109,0.33552
 999.221,83.61333,     17.00406,120.132,0.33521
1000.55,83.68000,     16.97745,120.181,0.33491
1001.9,83.74667,     16.95084,120.207,0.33460
1003.24,83.81333,     16.92240,120.254,0.33430
1004.58,83.88000,     16.89516,120.303,0.33400
1005.93,83.94667,     16.88157,120.26,0.33370
1007.26,84.01333,     16.85678,120.309,0.33340
1008.59,84.08000,     16.82823,120.352,0.33311
1009.94,84.14667,     16.81558,120.419,0.33281
1011.28,84.21333,     16.77051,120.458,0.33252
1012.63,84.28000,     16.75237,120.434,0.33223
1013.96,84.34667,     16.71807,120.484,0.33194
1015.29,84.41333,     16.71577,120.525,0.33165
1016.64,84.48000,     16.68627,120.572,0.33136
1017.98,84.54667,     16.64686,120.625,0.33107
1019.33,84.61333,     16.62236,120.621,0.33079
1020.66,84.68000,     16.57682,120.621,0.33050
1022,84.74667,     16.54635,120.735,0.33022
1023.34,84.81333,     16.48781,120.786,0.32994
1024.68,84.88000,     16.44023,120.797,0.32966
1026.03,84.94667,     16.40042,120.809,0.32938
1027.36,85.01333,     16.33029,120.862,0.32910
1028.7,85.08000,     16.28102,120.858,0.32883
1030.04,85.14667,     16.22093,120.935,0.32855
1031.38,85.21333,     16.18869,120.952,0.32828
1032.71,85.28000,     16.14105,120.894,0.32800
1034.05,85.34667,     16.07964,120.903,0.32773
1035.39,85.41333,     16.02311,121.051,0.32746
1036.73,85.48000,     15.96470,121.109,0.32719
1038.07,85.54667,     15.90164,121.125,0.32693
1039.42,85.61333,     15.83016,121.143,0.32666
1040.75,85.68000,     15.75923,121.143,0.32639
1042.09,85.74667,     15.68740,121.237,0.32613
1043.44,85.81333,     15.59798,121.117,0.32586
1044.79,85.88000,     15.52583,121.149,0.32560
1046.11,85.94667,     15.42668,121.217,0.32534
1047.46,86.01333,     15.34079,121.249,0.32508
1048.78,86.08000,     15.24495,121.288,0.32482
1050.12,86.14667,     15.15908,121.392,0.32456
1051.46,86.21333,     15.04758,121.461,0.32431
1052.8,86.28000,     14.97140,121.502,0.32405
1054.12,86.34667,     14.87895,121.584,0.32380
1055.46,86.41333,     14.77477,121.574,0.32354
1056.8,86.48000,     14.66277,121.527,0.32329
1058.15,86.54667,     14.56622,121.651,0.32304
1059.48,86.61333,     14.45717,121.79,0.32279
1060.82,86.68000,     14.34839,121.518,0.32254
1062.16,86.74667,     14.22636,121.529,0.32229
1063.5,86.81333,     14.12890,121.684,0.32204
1064.83,86.88000,     13.99877,121.849,0.32179
1066.17,86.94667,     13.87905,121.914,0.32155
1067.52,87.01333,     13.74183,122.004,0.32130
1068.84,87.08000,     13.60005,121.847,0.32106
1070.19,87.14667,     13.45347,121.918,0.32081
1071.53,87.21333,     13.30745,122.01,0.32057
1072.86,87.28000,     13.15862,122.085,0.32033
1074.19,87.34667,     13.01625,122.08,0.32009
1075.53,87.41333,     12.85507,121.984,0.31985
1076.87,87.48000,     12.69322,121.929,0.31961
1078.2,87.54667,     12.52681,121.945,0.31937
1079.54,87.61333,     12.35338,122.067,0.31913
1080.88,87.68000,     12.14823,122.133,0.31889
1082.22,87.74667,     11.97930,122.214,0.31866
1083.55,87.81333,     11.79894,122.336,0.31842
1084.9,87.88000,     11.59205,122.328,0.31818
1086.23,87.94667,     11.38686,122.263,0.31795
1087.57,88.01333,     11.17501,122.267,0.31772
1088.91,88.08000,     10.96407,122.296,0.31748
1090.24,88.14667,     10.75151,122.343,0.31725
1091.57,88.21333,     10.51556,122.338,0.31702
1092.92,88.28000,     10.29253,122.341,0.31679
1094.25,88.34667,     10.05799,122.373,0.31656
1095.59,88.41333,      9.82526,122.426,0.31633
1096.92,88.48000,      9.59215,122.465,0.31610
1098.26,88.54667,      9.35357,122.441,0.31587
1099.6,88.61333,      9.10261,122.465,0.31565
1100.93,88.68000,      8.87701,122.465,0.31542
1102.27,88.74667,      8.63305,122.488,0.31519
1103.6,88.81333,      8.39813,122.488,0.31497
1104.94,88.88000,      8.17064,122.488,0.31474
1106.28,88.94667,      7.95229,122.514,0.31452
1107.63,89.01333,      7.73192,122.538,0.31429
1108.96,89.08000,      7.54692,122.518,0.31407
1110.29,89.14667,      7.35606,122.536,0.31384
1111.63,89.21333,      7.18866,122.587,0.31362
1112.97,89.28000,      7.02277,122.563,0.31340
1114.31,89.34667,      6.87560,122.54,0.31318
1115.64,89.41333,      6.74812,122.551,0.31296
1116.99,89.48000,      6.65382,122.563,0.31273
1118.33,89.54667,      6.55154,122.563,0.31251
1119.66,89.61333,      6.49330,122.54,0.31229
1121,89.68000,      6.43758,122.516,0.31207
1122.33,89.74667,      6.42474,122.516,0.31185
1123.67,89.81333,      6.43012,122.493,0.31164
1125.01,89.88000,      6.46334,122.493,0.31142
1126.35,89.94667,      6.54791,122.504,0.31120
1127.69,90.01333,      6.65913,122.477,0.31098
1129.03,90.08000,      6.81708,122.5,0.31076
1130.36,90.14667,      7.02538,122.447,0.31055
1131.7,90.21333,      7.24403,122.398,0.31033
1133.04,90.28000,      7.45333,122.404,0.31011
1134.38,90.34667,      7.63280,122.365,0.30990
1135.72,90.41333,      7.64733,122.365,0.30968
1137.06,90.48000,      7.48558,122.504,0.30946
1138.4,90.54667,      7.21331,122.504,0.30925
1139.74,90.61333,      6.89555,122.436,0.30903
1141.06,90.68000,      6.59045,122.173,0.30882
1142.4,90.74667,      6.32354,122.13,0.30860
1143.74,90.81333,      6.08348,122.361,0.30839
1145.08,90.88000,      5.86810,122.247,0.30818
1146.41,90.94667,      5.69505,122.106,0.30796
1147.75,91.01333,      5.52748,122.249,0.30775
1149.09,91.08000,      5.37463,122.3,0.30754
1150.42,91.14667,      5.25591,122.153,0.30732
1151.7,91.21333,      5.16068,122.13,0.30712
1153.05,91.28000,      5.19253,122.137,0.30690
1154.4,91.34667,      5.13571,122.167,0.30669
1155.76,91.41333,      5.11017,122.21,0.30647
1157.09,91.48000,      5.08808,122.122,0.30626
1158.42,91.54667,      5.04647,122.128,0.30605
1159.76,91.61333,      4.97960,122.094,0.30584
1161.1,91.68000,      4.93746,122.051,0.30563
1162.44,91.74667,      4.90145,122.028,0.30541
1163.77,91.81333,      4.88488,122.067,0.30520
1165.11,91.88000,      4.86654,122.198,0.30499
1166.45,91.94667,      4.87748,122.257,0.30478
1167.78,92.01333,      4.86397,122.137,0.30457
1169.13,92.08000,      4.83536,122.21,0.30435
1170.46,92.14667,      4.81869,122.259,0.30414
1171.81,92.21333,      4.79044,122.214,0.30393
1173.15,92.28000,      4.75057,122.086,0.30372
1174.48,92.34667,      4.73826,122.132,0.30351
1175.82,92.41333,      4.70364,122.228,0.30329
1177.16,92.48000,      4.68548,122.143,0.30308
1178.49,92.54667,      4.66329,122.194,0.30287
1179.83,92.61333,      4.63302,122.167,0.30266
1181.18,92.68000,      4.62822,122.2,0.30245
1182.53,92.74667,      4.62075,122.124,0.30223
1183.85,92.81333,      4.61140,122.055,0.30202
1185.19,92.88000,      4.59446,122.004,0.30181
1186.54,92.94667,      4.58829,122.026,0.30160
1187.87,93.01333,      4.59017,122.147,0.30139
1189.21,93.08000,      4.57184,122.243,0.30117
1190.55,93.14667,      4.56741,122.061,0.30096
1191.6,93.21333,      8.22735,122.085,0.30079
1192.76,93.28000,     12.10050,122.03,0.30061
1194.2,93.34667,     12.32733,122.043,0.30038
1195.6,93.41333,     12.45012,122.086,0.30016
1196.94,93.48000,     12.57540,122.141,0.29994
1197.22,93.49333,     12.59896,122.141,0.29990