File: dealloy_example/ExpDat_dealloy_Al_12122023_MACT_A_pink_label_20Kmin_20O2_80Ar_1200C_round_2.csv
#EXPORTTYPE:                 ,DATA ALL
#FILE:                       ,dealloy_Al_12122023_MACT_A_pink_label_20Kmin_20O2_80Ar_1200C_round_2.ngb-ds3
#FORMAT:                     ,NETZSCH5
#FTYPE:                      ,ANSI
#IDENTITY:                   ,De_alloy_MACT_pk_R2
#DECIMAL:                    ,POINT
#SEPARATOR:                  ,COMMA
#MTYPE:                      ,DSC
#INSTRUMENT:                 ,NETZSCH STA 449F3
#PROJECT:                    ,nano-Al
#DATE/TIME:                  ,12/12/2023 3:12:41 PM (UTC-5)
#CORR. FILE:                 ,BL_11012023_20Kmin_1200C_10O2_40Ar.ngb-bs3
#TEMPCAL:                    ,03-05-2023 11:25
#SENSITIVITY:                ,03-05-2023 11:53
#LABORATORY:                 ,calorimetry lab
#OPERATOR:                   ,YP
#REMARK:                     ,dealloy_Al_12122023_MACT_A_pink_label_20Kmin_20O2_80Ar_1200C_round_2
#SAMPLE:                     ,De_alloy_MACT_pk_R2
#SAMPLE MASS /mg:            ,5.3231
#MATERIAL:                   ,mt
#REFERENCE:                  ,empty
#REFERENCE MASS /mg:         ,0
#TYPE OF CRUCIBLE:           ,Al2O3 85 µl, with lid
#SAMPLE CRUCIBLE MASS /mg:   ,0
#REFERENCE CRUCIBLE MASS /mg:,0
#DSC RANGE /µV:              ,5000
#TG RANGE /mg:               ,35000
#TAU-R:                      ,---
#CORR. CODE:                 ,020
#EXO:                        ,+1
#RANGE:                      ,50°C/20.0(K/min)/1200°C
#SEGMENT:                    ,S3/3
#SEG. 3:                     ,50°C/20.0(K/min)/1200°C

##Temp./°C,Time/min,DSC/(mW/mg),Mass/%,Sensit./(uV/mW)
  49.66200,36.01333,-7.600132e-03, 99.42045,0.73548
  49.65600,36.08000,-4.677028e-03, 99.40805,0.73547
  49.66700,36.14667,-2.533367e-03, 99.39547,0.73548
  49.67000,36.21333,-5.261594e-03, 99.42045,0.73548
  49.70100,36.28000,-2.338425e-03, 99.45783,0.73550
  49.71700,36.34667, 2.338393e-03, 99.44112,0.73551
  49.78500,36.41333, 1.558839e-03, 99.42665,0.73555
  49.86200,36.48000, 6.429790e-03, 99.43492,0.73560
  49.94400,36.54667, 1.753457e-02, 99.45783,0.73565
  50.04800,36.61333, 2.201369e-02, 99.51194,0.73572
  50.18500,36.68000, 2.454340e-02, 99.55139,0.73580
  50.34500,36.74667, 3.603107e-02, 99.52847,0.73590
  50.53000,36.81333, 4.498313e-02, 99.48075,0.73602
  50.74500,36.88000, 5.782512e-02, 99.43304,0.73615
  51.01000,36.94667, 6.812878e-02, 99.42665,0.73631
  51.26400,37.01333, 7.609339e-02, 99.39340,0.73647
  51.57000,37.08000, 9.261176e-02, 99.41632,0.73666
  51.89600,37.14667,      0.10426, 99.39133,0.73686
  52.26900,37.21333,      0.12600, 99.41425,0.73709
  52.69300,37.28000,      0.14093, 99.43717,0.73735
  53.11100,37.34667,      0.14884, 99.41425,0.73760
  53.56800,37.41333,      0.16918, 99.47455,0.73788
  54.06600,37.48000,      0.18620, 99.49109,0.73818
  54.58100,37.54667,      0.20456, 99.48902,0.73848
  55.13300,37.61333,      0.21747, 99.53260,0.73881
  55.70100,37.68000,      0.23618, 99.49522,0.73915
  56.29700,37.74667,      0.24769, 99.47023,0.73950
  56.93200,37.81333,      0.26946, 99.43097,0.73988
  57.58800,37.88000,      0.28268, 99.45370,0.74026
  58.25900,37.94667,      0.29588, 99.48075,0.74065
  58.95800,38.01333,      0.31390, 99.49315,0.74105
  59.67700,38.08000,      0.33229, 99.42872,0.74146
  60.41400,38.14667,      0.34466, 99.43492,0.74188
  61.18100,38.21333,      0.36473, 99.42252,0.74232
  61.97100,38.28000,      0.38033, 99.43078,0.74276
  62.77300,38.34667,      0.39611, 99.51400,0.74321
  63.59000,38.41333,      0.41148, 99.48282,0.74366
  64.41300,38.48000,      0.42934, 99.51588,0.74411
  65.28900,38.54667,      0.45235, 99.46009,0.74459
  66.15900,38.61333,      0.46765, 99.51814,0.74506
  67.06300,38.68000,      0.48696, 99.54087,0.74554
  67.97500,38.74667,      0.50950, 99.53692,0.74602
  68.90100,38.81333,      0.52914, 99.47023,0.74651
  69.85800,38.88000,      0.55066, 99.44750,0.74701
  70.83900,38.94667,      0.57636, 99.36034,0.74751
  71.83500,39.01333,      0.60203, 99.46422,0.74802
  72.86400,39.08000,      0.62536, 99.47230,0.74854
  73.89200,39.14667,      0.65191, 99.44130,0.74905
  74.94900,39.21333,      0.67899, 99.37893,0.74957
  76.02100,39.28000,      0.71119, 99.45990,0.75009
  77.13000,39.34667,      0.74448, 99.45577,0.75063
  78.26200,39.41333,      0.77657, 99.43905,0.75117
  79.38000,39.48000,      0.81092, 99.43924,0.75169
  80.56200,39.54667,      0.84996, 99.45164,0.75224
  81.75200,39.61333,      0.89066, 99.43905,0.75279
  82.95700,39.68000,      0.92978, 99.45990,0.75333
  84.20800,39.74667,      0.97054, 99.42477,0.75389
  85.46600,39.81333,      1.01410, 99.31863,0.75444
  86.75300,39.88000,      1.06062, 99.37480,0.75500
  88.04900,39.94667,      1.10632, 99.38945,0.75555
  89.38300,40.01333,      1.15972, 99.41012,0.75611
  90.73800,40.08000,      1.20584, 99.41425,0.75667
  92.10500,40.14667,      1.25625, 99.42252,0.75722
  93.48100,40.21333,      1.31228, 99.41218,0.75777
  94.87700,40.28000,      1.36879, 99.42665,0.75831
  96.30400,40.34667,      1.42541, 99.36447,0.75886
  97.73600,40.41333,      1.48461, 99.34155,0.75939
  99.19000,40.48000,      1.54071, 99.37273,0.75993
 100.666,40.54667,      1.60428, 99.35414,0.76046
 102.138,40.61333,      1.66948, 99.33535,0.76098
 103.657,40.68000,      1.73590, 99.33948,0.76151
 105.136,40.74667,      1.80604, 99.36447,0.76201
 106.675,40.81333,      1.87307, 99.34362,0.76251
 108.235,40.88000,      1.94228, 99.32708,0.76302
 109.782,40.94667,      2.01970, 99.29158,0.76350
 111.334,41.01333,      2.09592, 99.29177,0.76398
 112.922,41.08000,      2.17074, 99.23766,0.76445
 114.5,41.14667,      2.25208, 99.21700,0.76491
 116.106,41.21333,      2.33164, 99.20854,0.76536
 117.717,41.28000,      2.41807, 99.17943,0.76581
 119.349,41.34667,      2.50910, 99.17943,0.76624
 120.977,41.41333,      2.58961, 99.14636,0.76666
 122.639,41.48000,      2.68388, 99.14636,0.76708
 124.299,41.54667,      2.77716, 99.11724,0.76748
 125.978,41.61333,      2.87243, 99.09226,0.76787
 127.64,41.68000,      2.96376, 99.09226,0.76824
 129.355,41.74667,      3.06731, 99.07347,0.76861
 131.056,41.81333,      3.16674, 99.04229,0.76897
 132.761,41.88000,      3.26128, 98.92807,0.76931
 134.492,41.94667,      3.36584, 99.06521,0.76964
 136.207,42.01333,      3.47244, 99.02162,0.76995
 137.957,42.08000,      3.57174, 99.01542,0.77025
 139.708,42.14667,      3.68144, 98.94272,0.77054
 141.457,42.21333,      3.78314, 98.94272,0.77082
 143.239,42.28000,      3.89913, 98.96771,0.77108
 145.004,42.34667,      4.00732, 98.96771,0.77133
 146.778,42.41333,      4.11850, 98.89707,0.77156
 148.557,42.48000,      4.22857, 98.78680,0.77178
 150.349,42.54667,      4.33754, 98.78060,0.77199
 152.135,42.61333,      4.45398, 98.78060,0.77218
 153.933,42.68000,      4.56079, 98.74321,0.77235
 155.719,42.74667,      4.67451, 98.74321,0.77251
 157.521,42.81333,      4.79161, 98.74321,0.77265
 159.324,42.88000,      4.90450, 98.76200,0.77278
 161.134,42.94667,      5.01875, 98.76200,0.77290
 162.923,43.01333,      5.13437, 98.68498,0.77300
 164.725,43.08000,      5.24394, 98.68498,0.77308
 166.548,43.14667,      5.36007, 98.68498,0.77315
 168.357,43.21333,      5.47018, 98.64139,0.77320
 170.168,43.28000,      5.58631, 98.61021,0.77324
 171.971,43.34667,      5.69402, 98.56024,0.77326
 173.797,43.41333,      5.80850, 98.56024,0.77327
 175.606,43.48000,      5.91717, 98.58522,0.77327
 177.413,43.54667,      6.03095, 98.58522,0.77325
 179.236,43.61333,      6.14598, 98.61021,0.77321
 181.042,43.68000,      6.26058, 98.63519,0.77316
 182.864,43.74667,      6.37328, 98.63519,0.77309
 184.682,43.81333,      6.49261, 98.61660,0.77301
 186.484,43.88000,      6.61004, 98.58954,0.77292
 188.308,43.94667,      6.72709, 98.58954,0.77281
 190.118,44.01333,      6.84132, 98.58936,0.77268
 191.923,44.08000,      6.96684, 98.56456,0.77254
 193.725,44.14667,      7.08771, 98.53976,0.77239
 195.525,44.21333,      7.21507, 98.53337,0.77223
 197.318,44.28000,      7.33742, 98.48979,0.77205
 199.129,44.34667,      7.46963, 98.51459,0.77185
 200.913,44.41333,      7.59663, 98.51459,0.77164
 202.699,44.48000,      7.72680, 98.53337,0.77143
 204.495,44.54667,      7.85628, 98.51478,0.77119
 206.287,44.61333,      7.99080, 98.53976,0.77094
 208.049,44.68000,      8.13182, 98.56456,0.77069
 209.834,44.74667,      8.26400, 98.53957,0.77041
 211.602,44.81333,      8.40068, 98.53957,0.77013
 213.345,44.88000,      8.53978, 98.53957,0.76984
 215.119,44.94667,      8.67863, 98.55216,0.76953
 216.872,45.01333,      8.81695, 98.56456,0.76921
 218.611,45.08000,      8.95215, 98.57076,0.76888
 220.345,45.14667,      9.09039, 98.61227,0.76854
 222.084,45.21333,      9.21884, 98.52097,0.76818
 223.814,45.28000,      9.35388, 98.54371,0.76782
 225.541,45.34667,      9.48900, 98.54991,0.76744
 227.267,45.41333,      9.61562, 98.54991,0.76706
 228.977,45.48000,      9.74003, 98.54991,0.76666
 230.692,45.54667,      9.86530, 98.57489,0.76625
 232.392,45.61333,      9.98089, 98.57489,0.76584
 234.083,45.68000,     10.09746, 98.56249,0.76541
 235.781,45.74667,     10.20985, 98.58748,0.76497
 237.457,45.81333,     10.31193, 98.58748,0.76453
 239.145,45.88000,     10.41113, 98.63726,0.76408
 240.805,45.94667,     10.50806, 98.63726,0.76362
 242.477,46.01333,     10.59778, 98.68930,0.76314
 244.132,46.08000,     10.68186, 98.66018,0.76266
 245.782,46.14667,     10.76636, 98.66018,0.76218
 247.422,46.21333,     10.84561, 98.66018,0.76168
 249.063,46.28000,     10.91834, 98.66638,0.76118
 250.685,46.34667,     10.98971, 98.65379,0.76067
 252.33,46.41333,     11.05841, 98.71823,0.76014
 253.935,46.48000,     11.11960, 98.77027,0.75962
 255.54,46.54667,     11.17271, 98.77027,0.75909
 257.152,46.61333,     11.23306, 98.75768,0.75854
 258.747,46.68000,     11.28466, 98.77027,0.75799
 260.345,46.74667,     11.33023, 98.77027,0.75744
 261.934,46.81333,     11.37464, 98.74547,0.75687
 263.505,46.88000,     11.41744, 98.72048,0.75631
 265.087,46.94667,     11.45955, 98.69550,0.75573
 266.643,47.01333,     11.49431, 98.72029,0.75515
 268.206,47.08000,     11.53726, 98.77027,0.75457
 269.765,47.14667,     11.57431, 98.78905,0.75397
 271.315,47.21333,     11.60311, 98.82024,0.75337
 272.859,47.28000,     11.63681, 98.82024,0.75277
 274.398,47.34667,     11.66761, 98.81385,0.75216
 275.927,47.41333,     11.69813, 98.78266,0.75154
 277.451,47.48000,     11.72231, 98.85537,0.75092
 278.961,47.54667,     11.74445, 98.85349,0.75030
 280.47,47.61333,     11.76865, 98.86795,0.74967
 281.991,47.68000,     11.79022, 98.93013,0.74903
 283.492,47.74667,     11.80396, 98.93633,0.74839
 284.974,47.81333,     11.82192, 98.95512,0.74775
 286.466,47.88000,     11.83721, 98.98630,0.74709
 287.954,47.94667,     11.84608, 99.01129,0.74644
 289.434,48.01333,     11.85176, 99.01129,0.74578
 290.912,48.08000,     11.85139, 98.98424,0.74511
 292.367,48.14667,     11.85846, 98.98424,0.74445
 293.829,48.21333,     11.85684, 98.98424,0.74378
 295.301,48.28000,     11.85250, 98.97184,0.74310
 296.755,48.34667,     11.84986, 98.95512,0.74241
 298.195,48.41333,     11.83910, 98.95512,0.74173
 299.645,48.48000,     11.82946, 98.95512,0.74104
 301.095,48.54667,     11.81215, 98.99250,0.74034
 302.516,48.61333,     11.79179, 99.04248,0.73965
 303.935,48.68000,     11.77359, 99.02989,0.73896
 305.381,48.74667,     11.75489, 99.05487,0.73824
 306.803,48.81333,     11.73353, 99.10466,0.73754
 308.218,48.88000,     11.71353, 99.10259,0.73682
 309.624,48.94667,     11.68495, 99.10259,0.73611
 311.034,49.01333,     11.66227, 99.10259,0.73539
 312.455,49.08000,     11.64129, 99.10259,0.73466
 313.844,49.14667,     11.60955, 99.14617,0.73394
 315.259,49.21333,     11.58489, 99.17116,0.73320
 316.644,49.28000,     11.56275, 99.22094,0.73248
 318.038,49.34667,     11.53838, 99.28538,0.73174
 319.429,49.41333,     11.51049, 99.29778,0.73099
 320.804,49.48000,     11.48916, 99.29797,0.73026
 322.197,49.54667,     11.45937, 99.30416,0.72950
 323.571,49.61333,     11.43298, 99.32295,0.72875
 324.948,49.68000,     11.40605, 99.31882,0.72800
 326.314,49.74667,     11.38200, 99.25025,0.72725
 327.692,49.81333,     11.35552, 99.31656,0.72648
 329.061,49.88000,     11.32681, 99.40185,0.72572
 330.435,49.94667,     11.29835, 99.42045,0.72494
 331.794,50.01333,     11.26957, 99.46422,0.72417
 333.155,50.08000,     11.24201, 99.48282,0.72340
 334.512,50.14667,     11.21205, 99.52640,0.72262
 335.88,50.21333,     11.18835, 99.58032,0.72184
 337.215,50.28000,     11.15403, 99.54519,0.72106
 338.588,50.34667,     11.12682, 99.61357,0.72026
 339.929,50.41333,     11.09893, 99.64476,0.71948
 341.265,50.48000,     11.06740, 99.65715,0.71869
 342.61,50.54667,     11.03875, 99.66974,0.71789
 343.969,50.61333,     11.00843, 99.67181,0.71708
 345.293,50.68000,     10.97939, 99.69679,0.71629
 346.625,50.74667,     10.95102, 99.70525,0.71549
 347.966,50.81333,     10.91551, 99.73624,0.71468
 349.291,50.88000,     10.88264, 99.79035,0.71388
 350.627,50.94667,     10.85650, 99.82153,0.71306
 351.972,51.01333,     10.82541, 99.92317,0.71223
 353.291,51.08000,     10.79608, 99.89837,0.71142
 354.619,51.14667,     10.76239, 99.91077,0.71060
 355.933,51.21333,     10.73460, 99.92955,0.70978
 357.265,51.28000,     10.70010, 99.97314,0.70895
 358.579,51.34667,     10.67067,100.027,0.70812
 359.907,51.41333,     10.63852,100.027,0.70729
 361.238,51.48000,     10.60476,100.079,0.70644
 362.555,51.54667,     10.57327,100.104,0.70561
 363.875,51.61333,     10.54098,100.131,0.70476
 365.192,51.68000,     10.51169,100.164,0.70392
 366.506,51.74667,     10.48194,100.189,0.70307
 367.823,51.81333,     10.45363,100.256,0.70222
 369.139,51.88000,     10.42141,100.281,0.70136
 370.456,51.94667,     10.39388,100.305,0.70051
 371.76,52.01333,     10.36252,100.343,0.69965
 373.068,52.08000,     10.33383,100.355,0.69879
 374.381,52.14667,     10.29819,100.38,0.69793
 375.692,52.21333,     10.27214,100.424,0.69706
 377.001,52.28000,     10.24401,100.466,0.69619
 378.31,52.34667,     10.20946,100.511,0.69532
 379.627,52.41333,     10.18465,100.517,0.69444
 380.922,52.48000,     10.15319,100.561,0.69357
 382.23,52.54667,     10.12431,100.561,0.69268
 383.558,52.61333,     10.09788,100.586,0.69179
 384.848,52.68000,     10.07168,100.611,0.69091
 386.157,52.74667,     10.03981,100.636,0.69002
 387.457,52.81333,     10.01261,100.659,0.68913
 388.767,52.88000,      9.98839,100.694,0.68823
 390.076,52.94667,      9.96309,100.719,0.68734
 391.373,53.01333,      9.94413,100.719,0.68644
 392.691,53.08000,      9.91825,100.773,0.68553
 393.999,53.14667,      9.89225,100.684,0.68462
 395.286,53.21333,      9.87166,100.684,0.68373
 396.609,53.28000,      9.85457,100.763,0.68280
 397.9,53.34667,      9.83736,100.883,0.68190
 399.21,53.41333,      9.81296,100.773,0.68098
 400.504,53.48000,      9.80334,100.823,0.68007
 401.804,53.54667,      9.78598,100.825,0.67915
 403.121,53.61333,      9.77344,100.854,0.67822
 404.418,53.68000,      9.76111,100.879,0.67730
 405.721,53.74667,      9.74800,100.945,0.67637
 407.012,53.81333,      9.74113,100.958,0.67545
 408.328,53.88000,      9.73815,100.999,0.67451
 409.619,53.94667,      9.73174,101.024,0.67359
 410.925,54.01333,      9.72997,101.103,0.67265
 412.225,54.08000,      9.73820,101.234,0.67171
 413.532,54.14667,      9.73716,101.037,0.67077
 414.834,54.21333,      9.74316,101.064,0.66983
 416.132,54.28000,      9.75666,101.07,0.66888
 417.436,54.34667,      9.77158,101.17,0.66794
 418.739,54.41333,      9.78893,101.132,0.66699
 420.037,54.48000,      9.80932,101.093,0.66604
 421.338,54.54667,      9.83543,101.226,0.66509
 422.647,54.61333,      9.86195,101.319,0.66413
 423.947,54.68000,      9.89647,101.298,0.66317
 425.247,54.74667,      9.93675,101.328,0.66221
 426.556,54.81333,      9.97663,101.357,0.66125
 427.857,54.88000,     10.02329,101.388,0.66029
 429.177,54.94667,     10.07381,101.411,0.65931
 430.474,55.01333,     10.13165,101.386,0.65834
 431.781,55.08000,     10.19132,101.444,0.65737
 433.088,55.14667,     10.26146,101.492,0.65640
 434.389,55.21333,     10.33855,101.55,0.65543
 435.7,55.28000,     10.41864,101.579,0.65445
 437.002,55.34667,     10.50547,101.579,0.65347
 438.303,55.41333,     10.59455,101.579,0.65250
 439.623,55.48000,     10.69648,101.633,0.65150
 440.93,55.54667,     10.79726,101.687,0.65052
 442.237,55.61333,     10.91140,101.72,0.64954
 443.544,55.68000,     11.02413,101.795,0.64855
 444.846,55.74667,     11.14824,101.733,0.64756
 446.167,55.81333,     11.27234,101.839,0.64656
 447.466,55.88000,     11.40588,101.98,0.64558
 448.78,55.94667,     11.54761,102.009,0.64458
 450.092,56.01333,     11.69335,102.034,0.64358
 451.397,56.08000,     11.84080,102.098,0.64259
 452.715,56.14667,     11.99965,102.163,0.64158
 454.02,56.21333,     12.16308,102.221,0.64059
 455.34,56.28000,     12.33578,102.273,0.63958
 456.647,56.34667,     12.50886,102.352,0.63858
 457.965,56.41333,     12.70065,102.406,0.63757
 459.265,56.48000,     12.88807,102.472,0.63657
 460.577,56.54667,     13.08960,102.52,0.63556
 461.882,56.61333,     13.29461,102.508,0.63456
 463.201,56.68000,     13.50460,102.595,0.63354
 464.511,56.74667,     13.72647,102.636,0.63253
 465.827,56.81333,     13.95575,102.784,0.63152
 467.155,56.88000,     14.19646,102.85,0.63049
 468.469,56.94667,     14.44273,102.89,0.62947
 469.766,57.01333,     14.68701,102.985,0.62847
 471.088,57.08000,     14.95288,103.139,0.62745
 472.401,57.14667,     15.21399,103.233,0.62643
 473.716,57.21333,     15.49616,103.295,0.62541
 475.025,57.28000,     15.78169,103.474,0.62439
 476.347,57.34667,     16.07901,103.58,0.62336
 477.665,57.41333,     16.38209,103.667,0.62234
 478.978,57.48000,     16.69830,103.765,0.62132
 480.297,57.54667,     17.01964,103.887,0.62029
 481.618,57.61333,     17.34673,103.993,0.61926
 482.922,57.68000,     17.69240,104.097,0.61824
 484.256,57.74667,     18.03782,104.186,0.61720
 485.564,57.81333,     18.38894,104.371,0.61618
 486.892,57.88000,     18.74545,104.489,0.61514
 488.207,57.94667,     19.11710,104.653,0.61412
 489.526,58.01333,     19.48964,104.839,0.61309
 490.851,58.08000,     19.87672,105.023,0.61205
 492.155,58.14667,     20.26904,105.154,0.61103
 493.484,58.21333,     20.66147,105.304,0.60999
 494.818,58.28000,     21.06104,105.424,0.60894
 496.129,58.34667,     21.45924,105.595,0.60792
 497.454,58.41333,     21.85164,105.776,0.60688
 498.766,58.48000,     22.24927,105.956,0.60585
 500.09,58.54667,     22.63891,106.145,0.60481
 501.417,58.61333,     23.02785,106.34,0.60377
 502.732,58.68000,     23.41208,106.538,0.60274
 504.054,58.74667,     23.78379,106.748,0.60170
 505.368,58.81333,     24.14604,106.957,0.60067
 506.705,58.88000,     24.49331,107.14,0.59962
 508.03,58.94667,     24.82369,107.383,0.59858
 509.33,59.01333,     25.12802,107.554,0.59756
 510.654,59.08000,     25.41305,107.751,0.59652
 511.986,59.14667,     25.66565,107.99,0.59547
 513.312,59.21333,     25.89483,108.221,0.59443
 514.617,59.28000,     26.09172,108.428,0.59341
 515.933,59.34667,     26.25845,108.628,0.59237
 517.23,59.41333,     26.40184,108.846,0.59135
 518.541,59.48000,     26.50226,109.075,0.59032
 519.856,59.54667,     26.57618,109.282,0.58929
 521.155,59.61333,     26.61786,109.494,0.58827
 522.469,59.68000,     26.63678,109.712,0.58724
 523.767,59.74667,     26.62903,109.916,0.58622
 525.09,59.81333,     26.59666,110.094,0.58518
 526.411,59.88000,     26.53907,110.288,0.58415
 527.705,59.94667,     26.46187,110.487,0.58313
 529.001,60.01333,     26.36894,110.672,0.58212
 530.311,60.08000,     26.26409,110.884,0.58109
 531.606,60.14667,     26.13682,111.065,0.58008
 532.904,60.21333,     26.00622,111.247,0.57906
 534.206,60.28000,     25.86339,111.42,0.57804
 535.511,60.34667,     25.71393,111.603,0.57702
 536.805,60.41333,     25.55732,111.725,0.57601
 538.113,60.48000,     25.38915,111.927,0.57498
 539.392,60.54667,     25.22586,112.12,0.57398
 540.691,60.61333,     25.05141,112.253,0.57297
 541.986,60.68000,     24.89472,112.488,0.57196
 543.293,60.74667,     24.73083,112.558,0.57094
 544.583,60.81333,     24.56148,112.654,0.56993
 545.879,60.88000,     24.40934,112.866,0.56892
 547.176,60.94667,     24.24708,113.034,0.56791
 548.472,61.01333,     24.08671,113.231,0.56690
 549.761,61.08000,     23.94349,113.439,0.56590
 551.062,61.14667,     23.78338,113.58,0.56489
 552.37,61.21333,     23.64831,113.666,0.56387
 553.67,61.28000,     23.49974,113.799,0.56286
 554.988,61.34667,     23.36164,113.95,0.56184
 556.287,61.41333,     23.23874,114.154,0.56083
 557.57,61.48000,     23.10437,114.276,0.55984
 558.88,61.54667,     22.98291,114.326,0.55883
 560.172,61.61333,     22.87299,114.509,0.55783
 561.485,61.68000,     22.76872,114.636,0.55681
 562.782,61.74667,     22.67151,114.814,0.55581
 564.078,61.81333,     22.58009,114.95,0.55481
 565.391,61.88000,     22.49789,115.124,0.55380
 566.7,61.94667,     22.42975,115.232,0.55279
 568.003,62.01333,     22.36502,115.396,0.55179
 569.305,62.08000,     22.31274,115.539,0.55079
 570.612,62.14667,     22.27525,115.697,0.54979
 571.917,62.21333,     22.24926,115.797,0.54879
 573.233,62.28000,     22.24206,115.857,0.54778
 574.543,62.34667,     22.25006,115.951,0.54678
 575.861,62.41333,     22.28299,116.096,0.54577
 577.16,62.48000,     22.34170,116.215,0.54478
 578.487,62.54667,     22.42413,116.379,0.54377
 579.792,62.61333,     22.54441,116.505,0.54277
 581.107,62.68000,     22.70429,116.638,0.54177
 582.415,62.74667,     22.89364,116.815,0.54078
 583.75,62.81333,     23.14161,116.94,0.53976
 585.058,62.88000,     23.44462,117.131,0.53877
 586.388,62.94667,     23.82513,117.318,0.53777
 587.709,63.01333,     24.28066,117.513,0.53677
 589.035,63.08000,     24.81959,117.661,0.53577
 590.372,63.14667,     25.46808,117.831,0.53476
 591.711,63.21333,     26.23368,118.005,0.53375
 593.039,63.28000,     27.15423,118.194,0.53275
 594.385,63.34667,     28.25219,118.425,0.53174
 595.726,63.41333,     29.56631,118.747,0.53074
 597.071,63.48000,     31.22180,119.088,0.52973
 598.436,63.54667,     33.50767,119.464,0.52871
 599.842,63.61333,     39.59624,119.956,0.52766
 601.298,63.68000,     48.72334,120.615,0.52658
 602.76,63.74667,     52.89820,121.338,0.52549
 604.178,63.81333,     51.31051,121.986,0.52444
 605.535,63.88000,     45.64134,122.383,0.52343
 606.825,63.94667,     40.63278,122.58,0.52248
 608.099,64.01333,     36.93068,122.721,0.52153
 609.354,64.08000,     34.07977,122.871,0.52061
 610.595,64.14667,     31.78971,123.006,0.51969
 611.849,64.21333,     29.88574,123.054,0.51877
 613.112,64.28000,     28.24401,123.214,0.51784
 614.36,64.34667,     26.81672,123.301,0.51693
 615.621,64.41333,     25.55642,123.388,0.51601
 616.901,64.48000,     24.41992,123.49,0.51507
 618.174,64.54667,     23.40999,123.581,0.51414
 619.452,64.61333,     22.49844,123.644,0.51321
 620.735,64.68000,     21.66367,123.673,0.51228
 622.02,64.74667,     20.90209,123.774,0.51135
 623.291,64.81333,     20.20999,123.872,0.51043
 624.583,64.88000,     19.57048,123.93,0.50949
 625.88,64.94667,     18.97745,123.972,0.50856
 627.158,65.01333,     18.43447,124.024,0.50764
 628.475,65.08000,     17.92071,123.999,0.50669
 629.76,65.14667,     17.44356,124.032,0.50577
 631.065,65.21333,     17.00570,124.084,0.50484
 632.36,65.28000,     16.59293,124.121,0.50391
 633.655,65.34667,     16.20566,124.165,0.50299
 634.975,65.41333,     15.84801,124.213,0.50205
 636.269,65.48000,     15.50869,124.219,0.50113
 637.584,65.54667,     15.19202,124.269,0.50020
 638.9,65.61333,     14.90112,124.3,0.49927
 640.197,65.68000,     14.62565,124.356,0.49835
 641.522,65.74667,     14.37676,124.429,0.49742
 642.827,65.81333,     14.14063,124.36,0.49650
 644.155,65.88000,     13.91413,124.379,0.49557
 645.463,65.94667,     13.71214,124.404,0.49465
 646.78,66.01333,     13.52663,124.443,0.49373
 648.094,66.08000,     13.34992,124.493,0.49282
 649.414,66.14667,     13.18397,124.518,0.49190
 650.741,66.21333,     13.03237,124.556,0.49098
 652.058,66.28000,     12.89721,124.543,0.49007
 653.38,66.34667,     12.76715,124.593,0.48916
 654.71,66.41333,     12.64491,124.579,0.48824
 656.031,66.48000,     12.54494,124.566,0.48733
 657.355,66.54667,     12.43310,124.566,0.48643
 658.684,66.61333,     12.31880,124.591,0.48552
 660.011,66.68000,     12.16140,124.616,0.48461
 661.33,66.74667,     11.91404,124.574,0.48372
 662.654,66.81333,     11.63788,124.572,0.48282
 663.982,66.88000,     11.59684,124.579,0.48192
 665.318,66.94667,     11.79261,124.649,0.48101
 666.642,67.01333,     11.94796,124.649,0.48012
 667.985,67.08000,     12.04164,124.701,0.47922
 669.309,67.14667,     12.09485,124.701,0.47833
 670.647,67.21333,     12.12292,124.647,0.47744
 671.953,67.28000,     12.13485,124.647,0.47657
 673.298,67.34667,     12.14592,124.676,0.47567
 674.631,67.41333,     12.15737,124.676,0.47479
 675.957,67.48000,     12.16475,124.676,0.47391
 677.296,67.54667,     12.16324,124.651,0.47303
 678.63,67.61333,     12.17037,124.676,0.47215
 679.967,67.68000,     12.17326,124.701,0.47127
 681.3,67.74667,     12.16811,124.676,0.47040
 682.623,67.81333,     12.16790,124.695,0.46954
 683.963,67.88000,     12.16822,124.72,0.46866
 685.297,67.94667,     12.18186,124.745,0.46780
 686.62,68.01333,     12.18609,124.732,0.46694
 687.949,68.08000,     12.19899,124.72,0.46608
 689.302,68.14667,     12.20950,124.689,0.46521
 690.626,68.21333,     12.21888,124.709,0.46436
 691.968,68.28000,     12.22420,124.737,0.46350
 693.291,68.34667,     12.23380,124.718,0.46266
 694.631,68.41333,     12.23963,124.699,0.46181
 695.972,68.48000,     12.25817,124.699,0.46096
 697.302,68.54667,     12.26874,124.699,0.46012
 698.626,68.61333,     12.27856,124.699,0.45928
 699.968,68.68000,     12.29804,124.724,0.45844
 701.299,68.74667,     12.30824,124.699,0.45760
 702.627,68.81333,     12.32558,124.768,0.45677
 703.962,68.88000,     12.33706,124.774,0.45594
 705.303,68.94667,     12.34988,124.774,0.45511
 706.63,69.01333,     12.35676,124.774,0.45429
 707.967,69.08000,     12.36787,124.724,0.45346
 709.289,69.14667,     12.37395,124.724,0.45265
 710.632,69.21333,     12.37938,124.724,0.45182
 711.965,69.28000,     12.39953,124.724,0.45101
 713.279,69.34667,     12.40726,124.724,0.45021
 714.627,69.41333,     12.42095,124.697,0.44939
 715.96,69.48000,     12.43372,124.697,0.44858
 717.291,69.54667,     12.44643,124.737,0.44778
 718.621,69.61333,     12.45108,124.743,0.44698
 719.963,69.68000,     12.45908,124.724,0.44617
 721.294,69.74667,     12.46332,124.699,0.44538
 722.63,69.81333,     12.47565,124.668,0.44458
 723.957,69.88000,     12.48876,124.78,0.44379
 725.288,69.94667,     12.49997,124.78,0.44301
 726.627,70.01333,     12.50739,124.805,0.44222
 727.954,70.08000,     12.52332,124.788,0.44144
 729.285,70.14667,     12.53606,124.724,0.44066
 730.618,70.21333,     12.53967,124.612,0.43988
 731.954,70.28000,     12.54523,124.612,0.43910
 733.28,70.34667,     12.55579,124.618,0.43833
 734.63,70.41333,     12.56213,124.593,0.43755
 735.954,70.48000,     12.57586,124.643,0.43679
 737.297,70.54667,     12.58626,124.755,0.43602
 738.621,70.61333,     12.59103,124.714,0.43526
 739.954,70.68000,     12.60777,124.657,0.43450
 741.291,70.74667,     12.62522,124.651,0.43374
 742.612,70.81333,     12.63278,124.699,0.43299
 743.954,70.88000,     12.62804,124.765,0.43224
 745.291,70.94667,     12.63408,124.682,0.43148
 746.626,71.01333,     12.64302,124.657,0.43074
 747.958,71.08000,     12.65954,124.657,0.42999
 749.279,71.14667,     12.66884,124.608,0.42926
 750.625,71.21333,     12.68552,124.633,0.42851
 751.964,71.28000,     12.69336,124.632,0.42778
 753.303,71.34667,     12.70583,124.608,0.42704
 754.633,71.41333,     12.72149,124.568,0.42631
 755.968,71.48000,     12.73989,124.581,0.42558
 757.299,71.54667,     12.75248,124.581,0.42486
 758.644,71.61333,     12.77032,124.585,0.42413
 759.976,71.68000,     12.78015,124.585,0.42341
 761.31,71.74667,     12.80047,124.635,0.42270
 762.646,71.81333,     12.80925,124.668,0.42198
 763.98,71.88000,     12.82510,124.74,0.42127
 765.328,71.94667,     12.83604,124.684,0.42055
 766.657,72.01333,     12.85617,124.705,0.41985
 767.985,72.08000,     12.87012,124.689,0.41915
 769.33,72.14667,     12.88534,124.595,0.41844
 770.665,72.21333,     12.90550,124.485,0.41775
 772.002,72.28000,     12.91743,124.396,0.41705
 773.337,72.34667,     12.93858,124.417,0.41636
 774.669,72.41333,     12.96208,124.41,0.41567
 776.005,72.48000,     12.98702,124.585,0.41498
 777.338,72.54667,     13.01087,124.498,0.41430
 778.671,72.61333,     13.02916,124.468,0.41362
 780.001,72.68000,     13.05259,124.45,0.41294
 781.342,72.74667,     13.08696,124.443,0.41226
 782.679,72.81333,     13.11851,124.452,0.41159
 784.024,72.88000,     13.14916,124.57,0.41091
 785.349,72.94667,     13.18194,124.601,0.41025
 786.675,73.01333,     13.22456,124.568,0.40959
 788.014,73.08000,     13.25727,124.462,0.40892
 789.346,73.14667,     13.29023,124.491,0.40826
 790.68,73.21333,     13.32008,124.56,0.40761
 792.016,73.28000,     13.35878,124.533,0.40695
 793.353,73.34667,     13.39082,124.502,0.40630
 794.685,73.41333,     13.42810,124.483,0.40565
 796.018,73.48000,     13.45834,124.433,0.40501
 797.355,73.54667,     13.49822,124.458,0.40436
 798.699,73.61333,     13.53718,124.404,0.40372
 800.026,73.68000,     13.57804,124.375,0.40308
 801.368,73.74667,     13.61668,124.375,0.40244
 802.705,73.81333,     13.65242,124.375,0.40181
 804.039,73.88000,     13.69099,124.35,0.40118
 805.371,73.94667,     13.73957,124.325,0.40055
 806.71,74.01333,     13.79980,124.35,0.39993
 808.06,74.08000,     13.84414,124.317,0.39930
 809.389,74.14667,     13.89358,124.342,0.39868
 810.721,74.21333,     13.94241,124.329,0.39807
 812.059,74.28000,     13.99067,124.279,0.39745
 813.391,74.34667,     14.04972,124.327,0.39684
 814.729,74.41333,     14.10534,124.234,0.39623
 816.061,74.48000,     14.16564,124.307,0.39563
 817.392,74.54667,     14.22166,124.398,0.39503
 818.73,74.61333,     14.26733,124.369,0.39443
 820.062,74.68000,     14.30713,124.333,0.39383
 821.402,74.74667,     14.36676,124.236,0.39323
 822.752,74.81333,     14.40546,124.238,0.39263
 824.071,74.88000,     14.43673,124.296,0.39205
 825.413,74.94667,     14.47203,124.248,0.39146
 826.752,75.01333,     14.49849,124.313,0.39088
 828.085,75.08000,     14.51969,124.263,0.39030
 829.443,75.14667,     14.53500,124.263,0.38971
 830.774,75.21333,     14.54725,124.265,0.38913
 832.112,75.28000,     14.55180,124.273,0.38856
 833.452,75.34667,     14.54411,124.3,0.38798
 834.789,75.41333,     14.52737,124.275,0.38742
 836.11,75.48000,     14.51022,124.221,0.38686
 837.455,75.54667,     14.47996,124.167,0.38629
 838.796,75.61333,     14.43940,124.109,0.38573
 840.122,75.68000,     14.39542,124.038,0.38517
 841.459,75.74667,     14.34021,124.175,0.38462
 842.799,75.81333,     14.29897,124.323,0.38406
 844.133,75.88000,     14.23836,124.236,0.38351
 845.47,75.94667,     14.17004,124.175,0.38296
 846.809,76.01333,     14.10071,124.121,0.38242
 848.14,76.08000,     14.03585,124.103,0.38188
 849.492,76.14667,     13.95899,124.038,0.38133
 850.83,76.21333,     13.87935,124.009,0.38079
 852.169,76.28000,     13.80808,124.13,0.38026
 853.502,76.34667,     13.73605,124.192,0.37973
 854.834,76.41333,     13.65917,124.186,0.37920
 856.177,76.48000,     13.59766,124.161,0.37867
 857.511,76.54667,     13.53956,124.088,0.37814
 858.84,76.61333,     13.47240,124.074,0.37762
 860.182,76.68000,     13.41313,124.086,0.37710
 861.531,76.74667,     13.36854,124.086,0.37658
 862.852,76.81333,     13.31155,124.152,0.37607
 864.188,76.88000,     13.26253,124.152,0.37556
 865.53,76.94667,     13.23400,124.119,0.37505
 866.858,77.01333,     13.19670,124.138,0.37454
 868.2,77.08000,     13.17205,124.161,0.37404
 869.531,77.14667,     13.13482,124.2,0.37354
 870.877,77.21333,     13.12219,124.227,0.37303
 872.208,77.28000,     13.09616,124.252,0.37254
 873.546,77.34667,     13.08470,124.288,0.37204
 874.88,77.41333,     13.06922,124.186,0.37155
 876.219,77.48000,     13.07299,124.163,0.37106
 877.546,77.54667,     13.06840,124.165,0.37058
 878.894,77.61333,     13.06747,124.219,0.37009
 880.226,77.68000,     13.06354,124.319,0.36961
 881.567,77.74667,     13.06428,124.283,0.36912
 882.894,77.81333,     13.06321,124.252,0.36865
 884.25,77.88000,     13.07137,124.229,0.36817
 885.579,77.94667,     13.07289,124.323,0.36770
 886.898,78.01333,     13.08240,124.383,0.36723
 888.243,78.08000,     13.08006,124.379,0.36676
 889.574,78.14667,     13.09037,124.269,0.36630
 890.909,78.21333,     13.08382,124.259,0.36584
 892.252,78.28000,     13.08983,124.288,0.36537
 893.587,78.34667,     13.10077,124.313,0.36491
 894.929,78.41333,     13.10623,124.304,0.36445
 896.261,78.48000,     13.11859,124.269,0.36400
 897.606,78.54667,     13.11924,124.346,0.36355
 898.955,78.61333,     13.11550,124.489,0.36309
 900.288,78.68000,     13.12057,124.414,0.36265
 901.627,78.74667,     13.12959,124.273,0.36220
 902.966,78.81333,     13.15123,124.311,0.36176
 904.299,78.88000,     13.15056,124.381,0.36132
 905.638,78.94667,     13.16497,124.452,0.36088
 906.974,79.01333,     13.17134,124.516,0.36044
 908.304,79.08000,     13.16882,124.429,0.36001
 909.643,79.14667,     13.18545,124.493,0.35958
 910.981,79.21333,     13.20122,124.622,0.35915
 912.326,79.28000,     13.21464,124.653,0.35872
 913.666,79.34667,     13.20874,124.624,0.35830
 915.012,79.41333,     13.21644,124.568,0.35787
 916.332,79.48000,     13.22257,124.547,0.35745
 917.681,79.54667,     13.24021,124.518,0.35703
 919.02,79.61333,     13.25770,124.531,0.35662
 920.356,79.68000,     13.27430,124.583,0.35620
 921.697,79.74667,     13.28529,124.607,0.35579
 923.027,79.81333,     13.30335,124.637,0.35538
 924.372,79.88000,     13.31750,124.635,0.35497
 925.706,79.94667,     13.33877,124.572,0.35457
 927.052,80.01333,     13.34678,124.516,0.35416
 928.383,80.08000,     13.37684,124.629,0.35376
 929.731,80.14667,     13.40100,124.678,0.35336
 931.065,80.21333,     13.42863,124.709,0.35296
 932.409,80.28000,     13.45433,124.84,0.35256
 933.74,80.34667,     13.47009,124.853,0.35217
 935.086,80.41333,     13.49535,124.93,0.35178
 936.41,80.48000,     13.49994,124.809,0.35139
 937.762,80.54667,     13.52724,124.809,0.35100
 939.093,80.61333,     13.54529,124.809,0.35062
 940.427,80.68000,     13.56580,124.809,0.35024
 941.765,80.74667,     13.58713,124.784,0.34986
 943.103,80.81333,     13.61049,124.921,0.34948
 944.443,80.88000,     13.62563,124.907,0.34910
 945.774,80.94667,     13.63076,124.969,0.34873
 947.117,81.01333,     13.64460,124.988,0.34835
 948.453,81.08000,     13.65626,125.054,0.34798
 949.79,81.14667,     13.65963,125.06,0.34761
 951.13,81.21333,     13.67039,125,0.34724
 952.459,81.28000,     13.68594,124.975,0.34688
 953.801,81.34667,     13.69208,125.034,0.34652
 955.133,81.41333,     13.71005,125.002,0.34616
 956.476,81.48000,     13.73101,125.052,0.34579
 957.809,81.54667,     13.75059,125.216,0.34544
 959.14,81.61333,     13.76180,125.206,0.34508
 960.471,81.68000,     13.77380,125.191,0.34473
 961.814,81.74667,     13.78795,125.276,0.34438
 963.146,81.81333,     13.80362,125.418,0.34403
 964.488,81.88000,     13.82268,125.418,0.34368
 965.825,81.94667,     13.83331,125.349,0.34333
 967.158,82.01333,     13.83590,125.26,0.34299
 968.492,82.08000,     13.84346,125.274,0.34264
 969.832,82.14667,     13.85019,125.245,0.34230
 971.163,82.21333,     13.85384,125.457,0.34196
 972.496,82.28000,     13.85115,125.43,0.34163
 973.836,82.34667,     13.86609,125.505,0.34129
 975.169,82.41333,     13.87840,125.27,0.34096
 976.5,82.48000,     13.88854,125.598,0.34062
 977.836,82.54667,     13.89658,125.586,0.34029
 979.172,82.61333,     13.88011,125.721,0.33996
 980.508,82.68000,     13.87663,125.68,0.33964
 981.842,82.74667,     13.88994,125.707,0.33931
 983.177,82.81333,     13.89012,125.732,0.33899
 984.512,82.88000,     13.88896,125.808,0.33866
 985.841,82.94667,     13.87031,125.821,0.33834
 987.179,83.01333,     13.86648,125.777,0.33802
 988.52,83.08000,     13.85794,125.823,0.33770
 989.857,83.14667,     13.84546,125.767,0.33739
 991.204,83.21333,     13.84234,125.804,0.33707
 992.53,83.28000,     13.83299,125.862,0.33676
 993.876,83.34667,     13.81182,125.947,0.33645
 995.212,83.41333,     13.79771,126.018,0.33614
 996.551,83.48000,     13.77542,126.049,0.33583
 997.891,83.54667,     13.75945,126.026,0.33552
 999.229,83.61333,     13.74893,126.051,0.33521
1000.57,83.68000,     13.72590,126.076,0.33491
1001.91,83.74667,     13.70836,126.128,0.33460
1003.24,83.81333,     13.68554,126.307,0.33430
1004.58,83.88000,     13.66657,126.309,0.33400
1005.92,83.94667,     13.64743,126.103,0.33370
1007.26,84.01333,     13.62785,126.207,0.33340
1008.6,84.08000,     13.59563,126.324,0.33311
1009.94,84.14667,     13.58572,126.417,0.33281
1011.27,84.21333,     13.54893,126.43,0.33252
1012.61,84.28000,     13.52244,126.4,0.33223
1013.96,84.34667,     13.49245,126.407,0.33194
1015.3,84.41333,     13.49603,126.448,0.33165
1016.64,84.48000,     13.48049,126.523,0.33136
1017.98,84.54667,     13.44933,126.579,0.33107
1019.33,84.61333,     13.42201,126.6,0.33079
1020.66,84.68000,     13.38669,126.61,0.33050
1022.01,84.74667,     13.35349,126.735,0.33022
1023.35,84.81333,     13.29932,126.764,0.32994
1024.68,84.88000,     13.25143,126.764,0.32966
1026.02,84.94667,     13.20825,126.764,0.32938
1027.36,85.01333,     13.14754,126.816,0.32910
1028.7,85.08000,     13.10847,126.839,0.32883
1030.04,85.14667,     13.05876,126.934,0.32855
1031.38,85.21333,     13.02340,126.959,0.32828
1032.71,85.28000,     12.99528,126.893,0.32801
1034.05,85.34667,     12.94394,126.905,0.32773
1035.4,85.41333,     12.89604,127.057,0.32746
1036.73,85.48000,     12.85184,127.144,0.32719
1038.08,85.54667,     12.79187,127.159,0.32692
1039.41,85.61333,     12.72946,127.159,0.32666
1040.75,85.68000,     12.67350,127.13,0.32639
1042.09,85.74667,     12.60514,127.25,0.32613
1043.43,85.81333,     12.51814,127.155,0.32586
1044.78,85.88000,     12.45782,127.18,0.32560
1046.12,85.94667,     12.36435,127.256,0.32534
1047.45,86.01333,     12.28118,127.281,0.32508
1048.8,86.08000,     12.20410,127.271,0.32482
1050.13,86.14667,     12.12278,127.362,0.32456
1051.46,86.21333,     12.03643,127.51,0.32431
1052.8,86.28000,     11.96056,127.535,0.32405
1054.14,86.34667,     11.87748,127.651,0.32380
1055.48,86.41333,     11.78583,127.641,0.32354
1056.81,86.48000,     11.67882,127.589,0.32329
1058.15,86.54667,     11.58857,127.705,0.32304
1059.48,86.61333,     11.50165,127.844,0.32279
1060.82,86.68000,     11.39681,127.566,0.32254
1062.15,86.74667,     11.27259,127.572,0.32229
1063.49,86.81333,     11.16291,127.74,0.32204
1064.83,86.88000,     11.04008,127.931,0.32179
1066.16,86.94667,     10.91656,127.979,0.32155
1067.5,87.01333,     10.78126,127.85,0.32130
1068.83,87.08000,     10.63054,127.975,0.32106
1070.17,87.14667,     10.48091,128.04,0.32081
1071.5,87.21333,     10.32027,128.027,0.32057
1072.85,87.28000,     10.13798,128.139,0.32033
1074.2,87.34667,      9.97461,128.135,0.32009
1075.53,87.41333,      9.79253,128.058,0.31985
1076.86,87.48000,      9.60835,128.025,0.31961
1078.2,87.54667,      9.41630,128.027,0.31937
1079.54,87.61333,      9.23018,128.12,0.31913
1080.87,87.68000,      9.03120,128.152,0.31889
1082.21,87.74667,      8.84000,128.262,0.31866
1083.55,87.81333,      8.63093,128.337,0.31842
1084.88,87.88000,      8.42196,128.335,0.31819
1086.22,87.94667,      8.20729,128.291,0.31795
1087.55,88.01333,      7.98235,128.289,0.31772
1088.9,88.08000,      7.76477,128.231,0.31749
1090.22,88.14667,      7.56440,128.256,0.31726
1091.57,88.21333,      7.36291,128.262,0.31702
1092.89,88.28000,      7.18680,128.237,0.31679
1094.24,88.34667,      7.02861,128.237,0.31656
1095.57,88.41333,      6.90728,128.318,0.31633
1096.91,88.48000,      6.80755,128.335,0.31610
1098.25,88.54667,      6.74897,128.31,0.31588
1099.59,88.61333,      6.71615,128.285,0.31565
1100.93,88.68000,      6.72373,128.278,0.31542
1102.27,88.74667,      6.72765,128.222,0.31519
1103.61,88.81333,      6.70974,128.185,0.31497
1104.94,88.88000,      6.67310,128.172,0.31474
1106.28,88.94667,      6.60132,128.123,0.31452
1107.61,89.01333,      6.49018,128.2,0.31429
1108.95,89.08000,      6.36200,128.148,0.31407
1110.29,89.14667,      6.20032,128.191,0.31384
1111.62,89.21333,      6.04887,128.191,0.31362
1112.97,89.28000,      5.87027,128.131,0.31340
1114.31,89.34667,      5.72159,128.106,0.31318
1115.65,89.41333,      5.55115,128.106,0.31295
1116.98,89.48000,      5.40702,128.106,0.31273
1118.32,89.54667,      5.24437,128.056,0.31251
1119.66,89.61333,      5.12598,128.056,0.31229
1120.99,89.68000,      4.99914,128.108,0.31207
1122.34,89.74667,      4.87445,128.069,0.31185
1123.67,89.81333,      4.77209,127.89,0.31164
1125,89.88000,      4.65898,127.878,0.31142
1126.34,89.94667,      4.56600,128.092,0.31120
1127.68,90.01333,      4.46366,127.882,0.31098
1129.01,90.08000,      4.39020,128.017,0.31077
1130.36,90.14667,      4.31437,127.938,0.31055
1131.69,90.21333,      4.23701,127.875,0.31033
1133.03,90.28000,      4.15956,127.975,0.31011
1134.37,90.34667,      4.10836,127.938,0.30990
1135.7,90.41333,      4.05011,127.938,0.30968
1137.05,90.48000,      3.99460,128.11,0.30947
1138.38,90.54667,      3.94871,128.081,0.30925
1139.72,90.61333,      3.90647,128.033,0.30903
1141.07,90.68000,      3.85722,127.786,0.30882
1142.4,90.74667,      3.80695,127.772,0.30861
1143.73,90.81333,      3.77055,128.004,0.30839
1145.06,90.88000,      3.73363,127.909,0.30818
1146.41,90.94667,      3.69620,127.759,0.30796
1147.75,91.01333,      3.66431,127.911,0.30775
1149.09,91.08000,      3.62258,127.994,0.30754
1150.37,91.14667,      3.66278,127.784,0.30733
1151.72,91.21333,      3.69987,127.74,0.30712
1153.06,91.28000,      3.73374,127.799,0.30690
1154.4,91.34667,      3.79616,127.855,0.30669
1155.74,91.41333,      3.81282,127.861,0.30648
1157.08,91.48000,      3.81687,127.728,0.30626
1158.43,91.54667,      3.79426,127.709,0.30605
1159.75,91.61333,      3.77577,127.699,0.30584
1161.09,91.68000,      3.75402,127.659,0.30563
1162.44,91.74667,      3.72145,127.678,0.30541
1163.78,91.81333,      3.71089,127.72,0.30520
1165.12,91.88000,      3.68621,127.834,0.30499
1166.45,91.94667,      3.66618,127.871,0.30478
1167.79,92.01333,      3.63015,127.77,0.30457
1169.13,92.08000,      3.58559,127.846,0.30435
1170.47,92.14667,      3.56170,127.898,0.30414
1171.82,92.21333,      3.52742,127.869,0.30393
1173.15,92.28000,      3.48644,127.741,0.30372
1174.49,92.34667,      3.44355,127.763,0.30351
1175.82,92.41333,      3.38735,127.865,0.30329
1177.16,92.48000,      3.39114,127.776,0.30308
1178.51,92.54667,      3.38027,127.805,0.30287
1179.85,92.61333,      3.35234,127.776,0.30266
1181.19,92.68000,      3.34332,127.786,0.30244
1182.52,92.74667,      3.33427,127.705,0.30223
1183.86,92.81333,      3.31431,127.657,0.30202
1185.2,92.88000,      3.30571,127.653,0.30181
1186.54,92.94667,      3.29758,127.62,0.30160
1187.88,93.01333,      3.30609,127.701,0.30138
1189.22,93.08000,      3.30510,127.784,0.30117
1190.57,93.14667,      3.31173,127.759,0.30096
1191.89,93.21333,      3.29641,127.713,0.30075
1193.23,93.28000,      3.28969,127.63,0.30053
1194.08,93.34667,     10.48851,127.651,0.30040
1195.43,93.41333,     12.07684,127.792,0.30019
1196.86,93.48000,     12.42239,127.707,0.29996
1197.14,93.49333,     12.45722,127.651,0.29991